refreshrate(hz),screenresolutionvert(pixels),screenresolutionhori(pixels),screenwidth(cm),color_text,eccentricity,Stim_size,left-handed,age,gender,participant,language,TrialNumber,bgori,staircase,targetloc,cond,ran,order,resp,rt,acc,contrast
120,1200,1920,49,.75,1.5,0.75,False,,male,,fr,1,361,2,1,3,1.0,0.0,0.0,0.6294907,0.0,0.011410550312757525
120,1200,1920,49,.75,1.5,0.75,False,,male,,fr,2,361,2,1,3,1.0,1.0,1.0,0.2337368,1.0,0.03193728503137525
120,1200,1920,49,.75,1.5,0.75,False,,male,,fr,3,361,1,1,3,1.0,2.0,0.0,0.7684198,0.0,0.011410550312757525
120,1200,1920,49,.75,1.5,0.75,False,,male,,fr,4,361,2,0,3,1.0,3.0,1.0,0.5556057,0.0,0.025185242205390552
120,1200,1920,49,.75,1.5,0.75,False,,male,,fr,5,361,2,1,3,1.0,4.0,0.0,0.2713896,0.0,0.044712587127241334
120,1200,1920,49,.75,1.5,0.75,False,,male,,fr,6,361,2,0,3,1.0,5.0,0.0,0.2535628,1.0,0.06911010412134794
120,1200,1920,49,.75,1.5,0.75,False,,male,,fr,7,361,1,1,3,1.0,6.0,1.0,0.2007293,1.0,0.03193728503137525
120,1200,1920,49,.75,1.5,0.75,False,,male,,fr,8,361,2,1,3,1.0,7.0,1.0,0.1058361,1.0,0.06384951358948564
120,1200,1920,49,.75,1.5,0.75,False,,male,,fr,9,361,1,1,3,1.0,8.0,1.0,0.3920052,1.0,0.025185242205390552
120,1200,1920,49,.75,1.5,0.75,False,,male,,fr,10,361,2,0,3,1.0,9.0,0.0,0.2236846,1.0,0.05783325689900704
120,1200,1920,49,.75,1.5,0.75,False,,male,,fr,11,361,1,0,3,1.0,10.0,1.0,0.3915182,0.0,0.020662660803773863
120,1200,1920,49,.75,1.5,0.75,False,,male,,fr,12,361,2,0,3,1.0,11.0,0.0,0.2415921,1.0,0.053431048458755306
120,1200,1920,49,.75,1.5,0.75,False,,male,,fr,13,361,2,1,3,1.0,12.0,1.0,0.1934073,1.0,0.049363931628254414
120,1200,1920,49,.75,1.5,0.75,False,,male,,fr,14,361,1,1,3,1.0,13.0,1.0,0.2253147,1.0,0.035259645123964685
120,1200,1920,49,.75,1.5,0.75,False,,male,,fr,15,361,1,0,3,1.0,14.0,0.0,0.3136197,1.0,0.03131136535299098
120,1200,1920,49,.75,1.5,0.75,False,,male,,fr,16,361,2,1,3,1.0,15.0,1.0,0.2398367,1.0,0.041309110667654074
120,1200,1920,49,.75,1.5,0.75,False,,male,,fr,17,361,1,0,3,1.0,16.0,0.0,0.4353706,1.0,0.027260265791946937
120,1200,1920,49,.75,1.5,0.75,False,,male,,fr,18,361,1,1,3,1.0,17.0,1.0,0.2537125,1.0,0.025185242205390552
120,1200,1920,49,.75,1.5,0.75,False,,male,,fr,19,361,1,0,3,1.0,18.0,0.0,1.1424737,1.0,0.02326816729466978
120,1200,1920,49,.75,1.5,0.75,False,,male,,fr,20,361,2,1,3,1.0,19.0,1.0,0.4288039,1.0,0.03892762246529605
120,1200,1920,49,.75,1.5,0.75,False,,male,,fr,21,361,1,0,3,1.0,20.0,0.0,0.5728814,1.0,0.019089840169665778
120,1200,1920,49,.75,1.5,0.75,False,,male,,fr,22,361,1,1,3,1.0,21.0,1.0,0.9654233,1.0,0.01798930257846178
120,1200,1920,49,.75,1.5,0.75,False,,male,,fr,23,361,1,1,3,1.0,22.0,1.0,0.3282317,1.0,0.016952211458201936
120,1200,1920,49,.75,1.5,0.75,False,,male,,fr,24,361,2,1,3,1.0,23.0,1.0,0.2752568,1.0,0.037416736247546954
120,1200,1920,49,.75,1.5,0.75,False,,male,,fr,25,361,1,0,3,1.0,24.0,1.0,0.7043048,0.0,0.015974909092232634
120,1200,1920,49,.75,1.5,0.75,False,,male,,fr,26,361,2,1,3,1.0,25.0,1.0,0.2630156,1.0,0.035259645123964685
120,1200,1920,49,.75,1.5,0.75,False,,male,,fr,27,361,2,0,3,1.0,26.0,0.0,0.23736,1.0,0.0325757169537761
120,1200,1920,49,.75,1.5,0.75,False,,male,,fr,28,361,2,1,3,1.0,27.0,1.0,0.2377803,1.0,0.030096086654351827
120,1200,1920,49,.75,1.5,0.75,False,,male,,fr,29,361,1,0,3,1.0,28.0,1.0,0.8739606,0.0,0.020662660803773863
120,1200,1920,49,.75,1.5,0.75,False,,male,,fr,30,361,1,0,3,1.0,29.0,0.0,0.6479055,1.0,0.0256886996089088
120,1200,1920,49,.75,1.5,0.75,False,,male,,fr,31,361,2,1,3,1.0,30.0,1.0,0.4186935,1.0,0.024207734900064604
120,1200,1920,49,.75,1.5,0.75,False,,male,,fr,32,361,2,1,3,1.0,31.0,1.0,0.2768064,1.0,0.02192674732684322
120,1200,1920,49,.75,1.5,0.75,False,,male,,fr,33,361,2,0,3,1.0,32.0,0.0,0.5368983,1.0,0.020662660803773863
120,1200,1920,49,.75,1.5,0.75,False,,male,,fr,34,361,1,0,3,1.0,33.0,0.0,1.8897723,1.0,0.024691651761314246
120,1200,1920,49,.75,1.5,0.75,False,,male,,fr,35,361,1,0,3,1.0,34.0,0.0,0.902941,1.0,0.02373330203489854
120,1200,1920,49,.75,1.5,0.75,False,,male,,fr,36,361,2,0,3,1.0,35.0,1.0,1.2932698,0.0,0.019089840169665778
120,1200,1920,49,.75,1.5,0.75,False,,male,,fr,37,361,2,0,3,1.0,36.0,0.0,2.244821,1.0,0.026202221214116684
120,1200,1920,49,.75,1.5,0.75,False,,male,,fr,38,361,2,1,3,1.0,37.0,1.0,2.7611506,1.0,0.024207734900064604
120,1200,1920,49,.75,1.5,0.75,False,,male,,fr,39,361,2,0,3,1.0,38.0,1.0,0.1228533,0.0,0.022812148451009043
120,1200,1920,49,.75,1.5,0.75,False,,male,,fr,40,361,2,1,3,1.0,39.0,1.0,0.435498,1.0,0.028361034164814575
120,1200,1920,49,.75,1.5,0.75,False,,male,,fr,41,361,1,0,3,1.0,40.0,1.0,0.4853382,0.0,0.022812148451009043
120,1200,1920,49,.75,1.5,0.75,False,,male,,fr,42,361,2,0,3,1.0,41.0,0.0,0.2061998,1.0,0.027805203280453338
120,1200,1920,49,.75,1.5,0.75,False,,male,,fr,43,361,2,0,3,1.0,42.0,0.0,0.1645984,1.0,0.026726008206168973
120,1200,1920,49,.75,1.5,0.75,False,,male,,fr,44,361,1,1,3,1.0,43.0,1.0,0.332219,1.0,0.0256886996089088
120,1200,1920,49,.75,1.5,0.75,False,,male,,fr,45,361,2,0,3,1.0,44.0,0.0,0.2429629,1.0,0.025185242205390552
120,1200,1920,49,.75,1.5,0.75,False,,male,,fr,46,361,1,0,3,1.0,45.0,0.0,0.3767995,1.0,0.025185242205390552
120,1200,1920,49,.75,1.5,0.75,False,,male,,fr,47,361,1,0,3,1.0,46.0,1.0,0.922579,0.0,0.024691651761314246
120,1200,1920,49,.75,1.5,0.75,False,,male,,fr,48,361,1,1,3,1.0,47.0,1.0,0.3031517,1.0,0.027260265791946937
120,1200,1920,49,.75,1.5,0.75,False,,male,,fr,49,361,2,1,3,1.0,48.0,1.0,0.3264698,1.0,0.024207734900064604
120,1200,1920,49,.75,1.5,0.75,False,,male,,fr,50,361,1,1,3,1.0,49.0,1.0,0.2586339,1.0,0.026202221214116684
120,1200,1920,49,.75,1.5,0.75,False,,male,,fr,51,361,1,1,3,1.0,50.0,1.0,0.3331093,1.0,0.0256886996089088
120,1200,1920,49,.75,1.5,0.75,False,,male,,fr,52,361,2,1,3,1.0,51.0,1.0,0.4694257,1.0,0.022812148451009043
120,1200,1920,49,.75,1.5,0.75,False,,male,,fr,53,361,2,1,3,1.0,52.0,1.0,0.2621411,1.0,0.02192674732684322
120,1200,1920,49,.75,1.5,0.75,False,,male,,fr,54,361,2,1,3,1.0,53.0,1.0,0.3059685,1.0,0.021075711012829217
120,1200,1920,49,.75,1.5,0.75,False,,male,,fr,55,361,1,1,3,1.0,54.0,1.0,0.3112803,1.0,0.025185242205390552
120,1200,1920,49,.75,1.5,0.75,False,,male,,fr,56,361,1,1,3,1.0,55.0,1.0,0.3482177,1.0,0.024691651761314246
120,1200,1920,49,.75,1.5,0.75,False,,male,,fr,57,361,1,0,3,1.0,56.0,0.0,0.265608,1.0,0.02373330203489854
120,1200,1920,49,.75,1.5,0.75,False,,male,,fr,58,361,2,0,3,1.0,57.0,0.0,0.4966595,1.0,0.020257705717824762
120,1200,1920,49,.75,1.5,0.75,False,,male,,fr,59,361,2,0,3,1.0,58.0,0.0,0.483537,1.0,0.0183489118882868
120,1200,1920,49,.75,1.5,0.75,False,,male,,fr,60,361,1,1,3,1.0,59.0,1.0,0.314592,1.0,0.02326816729466978
120,1200,1920,49,.75,1.5,0.75,False,,male,,fr,61,361,2,0,3,1.0,60.0,0.0,0.4216765,1.0,0.016952211458201936
120,1200,1920,49,.75,1.5,0.75,False,,male,,fr,62,361,1,1,3,1.0,61.0,1.0,1.3311989,1.0,0.022812148451009043
120,1200,1920,49,.75,1.5,0.75,False,,male,,fr,63,361,1,0,3,1.0,62.0,0.0,0.3406484,1.0,0.02236506684693147
120,1200,1920,49,.75,1.5,0.75,False,,male,,fr,64,361,2,0,3,1.0,63.0,1.0,0.5370963,0.0,0.01629425032339594
120,1200,1920,49,.75,1.5,0.75,False,,male,,fr,65,361,1,1,3,1.0,64.0,1.0,0.4227851,1.0,0.02192674732684322
120,1200,1920,49,.75,1.5,0.75,False,,male,,fr,66,361,1,0,3,1.0,65.0,0.0,0.5402846,1.0,0.021497018167919782
120,1200,1920,49,.75,1.5,0.75,False,,male,,fr,67,361,1,1,3,1.0,66.0,1.0,1.0730655,1.0,0.020662660803773863
120,1200,1920,49,.75,1.5,0.75,False,,male,,fr,68,361,2,0,3,1.0,67.0,1.0,1.0972522,0.0,0.021075711012829217
120,1200,1920,49,.75,1.5,0.75,False,,male,,fr,69,361,2,0,3,1.0,68.0,0.0,0.6633961,1.0,0.02326816729466978
120,1200,1920,49,.75,1.5,0.75,False,,male,,fr,70,361,2,1,3,1.0,69.0,1.0,1.6119632,1.0,0.022812148451009043
120,1200,1920,49,.75,1.5,0.75,False,,male,,fr,71,361,1,1,3,1.0,70.0,0.0,3.408674,0.0,0.020257705717824762
120,1200,1920,49,.75,1.5,0.75,False,,male,,fr,72,361,1,0,3,1.0,71.0,1.0,1.1423804,0.0,0.02236506684693147
120,1200,1920,49,.75,1.5,0.75,False,,male,,fr,73,361,2,1,3,1.0,72.0,1.0,0.458819,1.0,0.02236506684693147
120,1200,1920,49,.75,1.5,0.75,False,,male,,fr,74,361,1,1,3,1.0,73.0,0.0,0.9069724,0.0,0.02373330203489854
120,1200,1920,49,.75,1.5,0.75,False,,male,,fr,75,361,2,0,3,1.0,74.0,1.0,1.333178,0.0,0.02192674732684322
120,1200,1920,49,.75,1.5,0.75,False,,male,,fr,76,361,1,0,3,1.0,75.0,1.0,1.7578602,0.0,0.025185242205390552
120,1200,1920,49,.75,1.5,0.75,False,,male,,fr,77,361,2,0,3,1.0,76.0,0.0,3.172794,1.0,0.024207734900064604
120,1200,1920,49,.75,1.5,0.75,False,,male,,fr,78,361,1,1,3,1.0,77.0,0.0,1.5545895,0.0,0.026726008206168973
120,1200,1920,49,.75,1.5,0.75,False,,male,,fr,79,361,1,0,3,1.0,78.0,0.0,0.3909873,1.0,0.028927976205922034
120,1200,1920,49,.75,1.5,0.75,False,,male,,fr,80,361,1,0,3,1.0,79.0,1.0,1.226475,0.0,0.028361034164814575
120,1200,1920,49,.75,1.5,0.75,False,,male,,fr,81,0,2,1,2,1.0,80.0,--,--,--,--
120,1200,1920,49,.75,1.5,0.75,False,,male,,fr,82,0,2,0,2,0.0,--,--,--,--,--
120,1200,1920,49,.75,1.5,0.75,False,,male,,fr,83,0,1,0,2,0.0,--,--,--,--,--
120,1200,1920,49,.75,1.5,0.75,False,,male,,fr,84,0,2,1,2,0.0,--,--,--,--,--
120,1200,1920,49,.75,1.5,0.75,False,,male,,fr,85,0,2,0,2,0.0,--,--,--,--,--
120,1200,1920,49,.75,1.5,0.75,False,,male,,fr,86,0,1,0,2,0.0,--,--,--,--,--
120,1200,1920,49,.75,1.5,0.75,False,,male,,fr,87,0,2,1,2,0.0,--,--,--,--,--
120,1200,1920,49,.75,1.5,0.75,False,,male,,fr,88,0,1,0,2,0.0,--,--,--,--,--
120,1200,1920,49,.75,1.5,0.75,False,,male,,fr,89,0,2,1,2,0.0,--,--,--,--,--
120,1200,1920,49,.75,1.5,0.75,False,,male,,fr,90,0,1,0,2,0.0,--,--,--,--,--
120,1200,1920,49,.75,1.5,0.75,False,,male,,fr,91,0,2,0,2,0.0,--,--,--,--,--
120,1200,1920,49,.75,1.5,0.75,False,,male,,fr,92,0,2,0,2,0.0,--,--,--,--,--
120,1200,1920,49,.75,1.5,0.75,False,,male,,fr,93,0,1,0,2,0.0,--,--,--,--,--
120,1200,1920,49,.75,1.5,0.75,False,,male,,fr,94,0,1,1,2,0.0,--,--,--,--,--
120,1200,1920,49,.75,1.5,0.75,False,,male,,fr,95,0,2,0,2,0.0,--,--,--,--,--
120,1200,1920,49,.75,1.5,0.75,False,,male,,fr,96,0,2,0,2,0.0,--,--,--,--,--
120,1200,1920,49,.75,1.5,0.75,False,,male,,fr,97,0,1,1,2,0.0,--,--,--,--,--
120,1200,1920,49,.75,1.5,0.75,False,,male,,fr,98,0,2,1,2,0.0,--,--,--,--,--
120,1200,1920,49,.75,1.5,0.75,False,,male,,fr,99,0,1,0,2,0.0,--,--,--,--,--
120,1200,1920,49,.75,1.5,0.75,False,,male,,fr,100,0,1,0,2,0.0,--,--,--,--,--
120,1200,1920,49,.75,1.5,0.75,False,,male,,fr,101,0,2,0,2,0.0,--,--,--,--,--
120,1200,1920,49,.75,1.5,0.75,False,,male,,fr,102,0,1,0,2,0.0,--,--,--,--,--
120,1200,1920,49,.75,1.5,0.75,False,,male,,fr,103,0,1,1,2,0.0,--,--,--,--,--
120,1200,1920,49,.75,1.5,0.75,False,,male,,fr,104,0,2,0,2,0.0,--,--,--,--,--
120,1200,1920,49,.75,1.5,0.75,False,,male,,fr,105,0,2,0,2,0.0,--,--,--,--,--
120,1200,1920,49,.75,1.5,0.75,False,,male,,fr,106,0,1,1,2,0.0,--,--,--,--,--
120,1200,1920,49,.75,1.5,0.75,False,,male,,fr,107,0,2,0,2,0.0,--,--,--,--,--
120,1200,1920,49,.75,1.5,0.75,False,,male,,fr,108,0,2,0,2,0.0,--,--,--,--,--
120,1200,1920,49,.75,1.5,0.75,False,,male,,fr,109,0,1,1,2,0.0,--,--,--,--,--
120,1200,1920,49,.75,1.5,0.75,False,,male,,fr,110,0,2,1,2,0.0,--,--,--,--,--
120,1200,1920,49,.75,1.5,0.75,False,,male,,fr,111,0,1,1,2,0.0,--,--,--,--,--
120,1200,1920,49,.75,1.5,0.75,False,,male,,fr,112,0,2,1,2,0.0,--,--,--,--,--
120,1200,1920,49,.75,1.5,0.75,False,,male,,fr,113,0,1,1,2,0.0,--,--,--,--,--
120,1200,1920,49,.75,1.5,0.75,False,,male,,fr,114,0,2,1,2,0.0,--,--,--,--,--
120,1200,1920,49,.75,1.5,0.75,False,,male,,fr,115,0,1,0,2,0.0,--,--,--,--,--
120,1200,1920,49,.75,1.5,0.75,False,,male,,fr,116,0,1,0,2,0.0,--,--,--,--,--
120,1200,1920,49,.75,1.5,0.75,False,,male,,fr,117,0,2,1,2,0.0,--,--,--,--,--
120,1200,1920,49,.75,1.5,0.75,False,,male,,fr,118,0,2,1,2,0.0,--,--,--,--,--
120,1200,1920,49,.75,1.5,0.75,False,,male,,fr,119,0,1,1,2,0.0,--,--,--,--,--
120,1200,1920,49,.75,1.5,0.75,False,,male,,fr,120,0,2,1,2,0.0,--,--,--,--,--
120,1200,1920,49,.75,1.5,0.75,False,,male,,fr,121,0,1,1,2,0.0,--,--,--,--,--
120,1200,1920,49,.75,1.5,0.75,False,,male,,fr,122,0,1,0,2,0.0,--,--,--,--,--
120,1200,1920,49,.75,1.5,0.75,False,,male,,fr,123,0,1,0,2,0.0,--,--,--,--,--
120,1200,1920,49,.75,1.5,0.75,False,,male,,fr,124,0,1,0,2,0.0,--,--,--,--,--
120,1200,1920,49,.75,1.5,0.75,False,,male,,fr,125,0,1,0,2,0.0,--,--,--,--,--
120,1200,1920,49,.75,1.5,0.75,False,,male,,fr,126,0,1,1,2,0.0,--,--,--,--,--
120,1200,1920,49,.75,1.5,0.75,False,,male,,fr,127,0,1,1,2,0.0,--,--,--,--,--
120,1200,1920,49,.75,1.5,0.75,False,,male,,fr,128,0,2,0,2,0.0,--,--,--,--,--
120,1200,1920,49,.75,1.5,0.75,False,,male,,fr,129,0,2,0,2,0.0,--,--,--,--,--
120,1200,1920,49,.75,1.5,0.75,False,,male,,fr,130,0,1,0,2,0.0,--,--,--,--,--
120,1200,1920,49,.75,1.5,0.75,False,,male,,fr,131,0,1,0,2,0.0,--,--,--,--,--
120,1200,1920,49,.75,1.5,0.75,False,,male,,fr,132,0,2,1,2,0.0,--,--,--,--,--
120,1200,1920,49,.75,1.5,0.75,False,,male,,fr,133,0,1,0,2,0.0,--,--,--,--,--
120,1200,1920,49,.75,1.5,0.75,False,,male,,fr,134,0,2,0,2,0.0,--,--,--,--,--
120,1200,1920,49,.75,1.5,0.75,False,,male,,fr,135,0,2,1,2,0.0,--,--,--,--,--
120,1200,1920,49,.75,1.5,0.75,False,,male,,fr,136,0,1,1,2,0.0,--,--,--,--,--
120,1200,1920,49,.75,1.5,0.75,False,,male,,fr,137,0,2,1,2,0.0,--,--,--,--,--
120,1200,1920,49,.75,1.5,0.75,False,,male,,fr,138,0,1,1,2,0.0,--,--,--,--,--
120,1200,1920,49,.75,1.5,0.75,False,,male,,fr,139,0,2,0,2,0.0,--,--,--,--,--
120,1200,1920,49,.75,1.5,0.75,False,,male,,fr,140,0,1,1,2,0.0,--,--,--,--,--
120,1200,1920,49,.75,1.5,0.75,False,,male,,fr,141,0,1,0,2,0.0,--,--,--,--,--
120,1200,1920,49,.75,1.5,0.75,False,,male,,fr,142,0,1,1,2,0.0,--,--,--,--,--
120,1200,1920,49,.75,1.5,0.75,False,,male,,fr,143,0,2,0,2,0.0,--,--,--,--,--
120,1200,1920,49,.75,1.5,0.75,False,,male,,fr,144,0,1,1,2,0.0,--,--,--,--,--
120,1200,1920,49,.75,1.5,0.75,False,,male,,fr,145,0,2,1,2,0.0,--,--,--,--,--
120,1200,1920,49,.75,1.5,0.75,False,,male,,fr,146,0,2,0,2,0.0,--,--,--,--,--
120,1200,1920,49,.75,1.5,0.75,False,,male,,fr,147,0,2,1,2,0.0,--,--,--,--,--
120,1200,1920,49,.75,1.5,0.75,False,,male,,fr,148,0,2,0,2,0.0,--,--,--,--,--
120,1200,1920,49,.75,1.5,0.75,False,,male,,fr,149,0,1,1,2,0.0,--,--,--,--,--
120,1200,1920,49,.75,1.5,0.75,False,,male,,fr,150,0,1,1,2,0.0,--,--,--,--,--
120,1200,1920,49,.75,1.5,0.75,False,,male,,fr,151,0,2,0,2,0.0,--,--,--,--,--
120,1200,1920,49,.75,1.5,0.75,False,,male,,fr,152,0,1,0,2,0.0,--,--,--,--,--
120,1200,1920,49,.75,1.5,0.75,False,,male,,fr,153,0,1,0,2,0.0,--,--,--,--,--
120,1200,1920,49,.75,1.5,0.75,False,,male,,fr,154,0,2,1,2,0.0,--,--,--,--,--
120,1200,1920,49,.75,1.5,0.75,False,,male,,fr,155,0,1,1,2,0.0,--,--,--,--,--
120,1200,1920,49,.75,1.5,0.75,False,,male,,fr,156,0,2,1,2,0.0,--,--,--,--,--
120,1200,1920,49,.75,1.5,0.75,False,,male,,fr,157,0,2,0,2,0.0,--,--,--,--,--
120,1200,1920,49,.75,1.5,0.75,False,,male,,fr,158,0,2,1,2,0.0,--,--,--,--,--
120,1200,1920,49,.75,1.5,0.75,False,,male,,fr,159,0,2,1,2,0.0,--,--,--,--,--
120,1200,1920,49,.75,1.5,0.75,False,,male,,fr,160,0,1,1,2,0.0,--,--,--,--,--
120,1200,1920,49,.75,1.5,0.75,False,,male,,fr,161,90,1,0,1,0.0,--,--,--,--,--
120,1200,1920,49,.75,1.5,0.75,False,,male,,fr,162,90,1,1,1,0.0,--,--,--,--,--
120,1200,1920,49,.75,1.5,0.75,False,,male,,fr,163,90,1,1,1,0.0,--,--,--,--,--
120,1200,1920,49,.75,1.5,0.75,False,,male,,fr,164,90,1,1,1,0.0,--,--,--,--,--
120,1200,1920,49,.75,1.5,0.75,False,,male,,fr,165,90,1,1,1,0.0,--,--,--,--,--
120,1200,1920,49,.75,1.5,0.75,False,,male,,fr,166,90,1,0,1,0.0,--,--,--,--,--
120,1200,1920,49,.75,1.5,0.75,False,,male,,fr,167,90,2,1,1,0.0,--,--,--,--,--
120,1200,1920,49,.75,1.5,0.75,False,,male,,fr,168,90,1,1,1,0.0,--,--,--,--,--
120,1200,1920,49,.75,1.5,0.75,False,,male,,fr,169,90,2,0,1,0.0,--,--,--,--,--
120,1200,1920,49,.75,1.5,0.75,False,,male,,fr,170,90,1,1,1,0.0,--,--,--,--,--
120,1200,1920,49,.75,1.5,0.75,False,,male,,fr,171,90,1,0,1,0.0,--,--,--,--,--
120,1200,1920,49,.75,1.5,0.75,False,,male,,fr,172,90,1,0,1,0.0,--,--,--,--,--
120,1200,1920,49,.75,1.5,0.75,False,,male,,fr,173,90,1,0,1,0.0,--,--,--,--,--
120,1200,1920,49,.75,1.5,0.75,False,,male,,fr,174,90,1,1,1,0.0,--,--,--,--,--
120,1200,1920,49,.75,1.5,0.75,False,,male,,fr,175,90,2,1,1,0.0,--,--,--,--,--
120,1200,1920,49,.75,1.5,0.75,False,,male,,fr,176,90,1,1,1,0.0,--,--,--,--,--
120,1200,1920,49,.75,1.5,0.75,False,,male,,fr,177,90,1,1,1,0.0,--,--,--,--,--
120,1200,1920,49,.75,1.5,0.75,False,,male,,fr,178,90,2,1,1,0.0,--,--,--,--,--
120,1200,1920,49,.75,1.5,0.75,False,,male,,fr,179,90,2,0,1,0.0,--,--,--,--,--
120,1200,1920,49,.75,1.5,0.75,False,,male,,fr,180,90,1,0,1,0.0,--,--,--,--,--
120,1200,1920,49,.75,1.5,0.75,False,,male,,fr,181,90,2,1,1,0.0,--,--,--,--,--
120,1200,1920,49,.75,1.5,0.75,False,,male,,fr,182,90,2,0,1,0.0,--,--,--,--,--
120,1200,1920,49,.75,1.5,0.75,False,,male,,fr,183,90,1,0,1,0.0,--,--,--,--,--
120,1200,1920,49,.75,1.5,0.75,False,,male,,fr,184,90,1,1,1,0.0,--,--,--,--,--
120,1200,1920,49,.75,1.5,0.75,False,,male,,fr,185,90,1,0,1,0.0,--,--,--,--,--
120,1200,1920,49,.75,1.5,0.75,False,,male,,fr,186,90,2,1,1,0.0,--,--,--,--,--
120,1200,1920,49,.75,1.5,0.75,False,,male,,fr,187,90,1,0,1,0.0,--,--,--,--,--
120,1200,1920,49,.75,1.5,0.75,False,,male,,fr,188,90,2,0,1,0.0,--,--,--,--,--
120,1200,1920,49,.75,1.5,0.75,False,,male,,fr,189,90,1,0,1,0.0,--,--,--,--,--
120,1200,1920,49,.75,1.5,0.75,False,,male,,fr,190,90,2,1,1,0.0,--,--,--,--,--
120,1200,1920,49,.75,1.5,0.75,False,,male,,fr,191,90,2,0,1,0.0,--,--,--,--,--
120,1200,1920,49,.75,1.5,0.75,False,,male,,fr,192,90,1,1,1,0.0,--,--,--,--,--
120,1200,1920,49,.75,1.5,0.75,False,,male,,fr,193,90,1,1,1,0.0,--,--,--,--,--
120,1200,1920,49,.75,1.5,0.75,False,,male,,fr,194,90,2,0,1,0.0,--,--,--,--,--
120,1200,1920,49,.75,1.5,0.75,False,,male,,fr,195,90,2,0,1,0.0,--,--,--,--,--
120,1200,1920,49,.75,1.5,0.75,False,,male,,fr,196,90,1,1,1,0.0,--,--,--,--,--
120,1200,1920,49,.75,1.5,0.75,False,,male,,fr,197,90,1,0,1,0.0,--,--,--,--,--
120,1200,1920,49,.75,1.5,0.75,False,,male,,fr,198,90,2,0,1,0.0,--,--,--,--,--
120,1200,1920,49,.75,1.5,0.75,False,,male,,fr,199,90,1,0,1,0.0,--,--,--,--,--
120,1200,1920,49,.75,1.5,0.75,False,,male,,fr,200,90,2,0,1,0.0,--,--,--,--,--
120,1200,1920,49,.75,1.5,0.75,False,,male,,fr,201,90,2,1,1,0.0,--,--,--,--,--
120,1200,1920,49,.75,1.5,0.75,False,,male,,fr,202,90,1,0,1,0.0,--,--,--,--,--
120,1200,1920,49,.75,1.5,0.75,False,,male,,fr,203,90,2,1,1,0.0,--,--,--,--,--
120,1200,1920,49,.75,1.5,0.75,False,,male,,fr,204,90,2,1,1,0.0,--,--,--,--,--
120,1200,1920,49,.75,1.5,0.75,False,,male,,fr,205,90,1,0,1,0.0,--,--,--,--,--
120,1200,1920,49,.75,1.5,0.75,False,,male,,fr,206,90,2,1,1,0.0,--,--,--,--,--
120,1200,1920,49,.75,1.5,0.75,False,,male,,fr,207,90,1,1,1,0.0,--,--,--,--,--
120,1200,1920,49,.75,1.5,0.75,False,,male,,fr,208,90,1,1,1,0.0,--,--,--,--,--
120,1200,1920,49,.75,1.5,0.75,False,,male,,fr,209,90,1,0,1,0.0,--,--,--,--,--
120,1200,1920,49,.75,1.5,0.75,False,,male,,fr,210,90,2,0,1,0.0,--,--,--,--,--
120,1200,1920,49,.75,1.5,0.75,False,,male,,fr,211,90,1,1,1,0.0,--,--,--,--,--
120,1200,1920,49,.75,1.5,0.75,False,,male,,fr,212,90,2,1,1,0.0,--,--,--,--,--
120,1200,1920,49,.75,1.5,0.75,False,,male,,fr,213,90,2,1,1,0.0,--,--,--,--,--
120,1200,1920,49,.75,1.5,0.75,False,,male,,fr,214,90,1,1,1,0.0,--,--,--,--,--
120,1200,1920,49,.75,1.5,0.75,False,,male,,fr,215,90,1,0,1,0.0,--,--,--,--,--
120,1200,1920,49,.75,1.5,0.75,False,,male,,fr,216,90,1,0,1,0.0,--,--,--,--,--
120,1200,1920,49,.75,1.5,0.75,False,,male,,fr,217,90,2,0,1,0.0,--,--,--,--,--
120,1200,1920,49,.75,1.5,0.75,False,,male,,fr,218,90,2,0,1,0.0,--,--,--,--,--
120,1200,1920,49,.75,1.5,0.75,False,,male,,fr,219,90,2,1,1,0.0,--,--,--,--,--
120,1200,1920,49,.75,1.5,0.75,False,,male,,fr,220,90,2,0,1,0.0,--,--,--,--,--
120,1200,1920,49,.75,1.5,0.75,False,,male,,fr,221,90,2,1,1,0.0,--,--,--,--,--
120,1200,1920,49,.75,1.5,0.75,False,,male,,fr,222,90,1,1,1,0.0,--,--,--,--,--
120,1200,1920,49,.75,1.5,0.75,False,,male,,fr,223,90,2,0,1,0.0,--,--,--,--,--
120,1200,1920,49,.75,1.5,0.75,False,,male,,fr,224,90,1,0,1,0.0,--,--,--,--,--
120,1200,1920,49,.75,1.5,0.75,False,,male,,fr,225,90,2,0,1,0.0,--,--,--,--,--
120,1200,1920,49,.75,1.5,0.75,False,,male,,fr,226,90,2,0,1,0.0,--,--,--,--,--
120,1200,1920,49,.75,1.5,0.75,False,,male,,fr,227,90,1,1,1,0.0,--,--,--,--,--
120,1200,1920,49,.75,1.5,0.75,False,,male,,fr,228,90,1,1,1,0.0,--,--,--,--,--
120,1200,1920,49,.75,1.5,0.75,False,,male,,fr,229,90,2,0,1,0.0,--,--,--,--,--
120,1200,1920,49,.75,1.5,0.75,False,,male,,fr,230,90,2,0,1,0.0,--,--,--,--,--
120,1200,1920,49,.75,1.5,0.75,False,,male,,fr,231,90,1,0,1,0.0,--,--,--,--,--
120,1200,1920,49,.75,1.5,0.75,False,,male,,fr,232,90,2,1,1,0.0,--,--,--,--,--
120,1200,1920,49,.75,1.5,0.75,False,,male,,fr,233,90,2,1,1,0.0,--,--,--,--,--
120,1200,1920,49,.75,1.5,0.75,False,,male,,fr,234,90,2,1,1,0.0,--,--,--,--,--
120,1200,1920,49,.75,1.5,0.75,False,,male,,fr,235,90,2,0,1,0.0,--,--,--,--,--
120,1200,1920,49,.75,1.5,0.75,False,,male,,fr,236,90,2,1,1,0.0,--,--,--,--,--
120,1200,1920,49,.75,1.5,0.75,False,,male,,fr,237,90,2,1,1,0.0,--,--,--,--,--
120,1200,1920,49,.75,1.5,0.75,False,,male,,fr,238,90,1,0,1,0.0,--,--,--,--,--
120,1200,1920,49,.75,1.5,0.75,False,,male,,fr,239,90,2,1,1,0.0,--,--,--,--,--
120,1200,1920,49,.75,1.5,0.75,False,,male,,fr,240,90,2,0,1,0.0,--,--,--,--,--
120,1200,1920,49,.75,1.5,0.75,False,,male,,fr,241,361,2,1,3,0.0,--,--,--,--,--
120,1200,1920,49,.75,1.5,0.75,False,,male,,fr,242,361,2,1,3,0.0,--,--,--,--,--
120,1200,1920,49,.75,1.5,0.75,False,,male,,fr,243,361,1,1,3,0.0,--,--,--,--,--
120,1200,1920,49,.75,1.5,0.75,False,,male,,fr,244,361,2,0,3,0.0,--,--,--,--,--
120,1200,1920,49,.75,1.5,0.75,False,,male,,fr,245,361,2,1,3,0.0,--,--,--,--,--
120,1200,1920,49,.75,1.5,0.75,False,,male,,fr,246,361,2,0,3,0.0,--,--,--,--,--
120,1200,1920,49,.75,1.5,0.75,False,,male,,fr,247,361,1,1,3,0.0,--,--,--,--,--
120,1200,1920,49,.75,1.5,0.75,False,,male,,fr,248,361,2,1,3,0.0,--,--,--,--,--
120,1200,1920,49,.75,1.5,0.75,False,,male,,fr,249,361,1,1,3,0.0,--,--,--,--,--
120,1200,1920,49,.75,1.5,0.75,False,,male,,fr,250,361,2,0,3,0.0,--,--,--,--,--
120,1200,1920,49,.75,1.5,0.75,False,,male,,fr,251,361,1,0,3,0.0,--,--,--,--,--
120,1200,1920,49,.75,1.5,0.75,False,,male,,fr,252,361,2,0,3,0.0,--,--,--,--,--
120,1200,1920,49,.75,1.5,0.75,False,,male,,fr,253,361,2,1,3,0.0,--,--,--,--,--
120,1200,1920,49,.75,1.5,0.75,False,,male,,fr,254,361,1,1,3,0.0,--,--,--,--,--
120,1200,1920,49,.75,1.5,0.75,False,,male,,fr,255,361,1,0,3,0.0,--,--,--,--,--
120,1200,1920,49,.75,1.5,0.75,False,,male,,fr,256,361,2,1,3,0.0,--,--,--,--,--
120,1200,1920,49,.75,1.5,0.75,False,,male,,fr,257,361,1,0,3,0.0,--,--,--,--,--
120,1200,1920,49,.75,1.5,0.75,False,,male,,fr,258,361,1,1,3,0.0,--,--,--,--,--
120,1200,1920,49,.75,1.5,0.75,False,,male,,fr,259,361,1,0,3,0.0,--,--,--,--,--
120,1200,1920,49,.75,1.5,0.75,False,,male,,fr,260,361,2,1,3,0.0,--,--,--,--,--
120,1200,1920,49,.75,1.5,0.75,False,,male,,fr,261,361,1,0,3,0.0,--,--,--,--,--
120,1200,1920,49,.75,1.5,0.75,False,,male,,fr,262,361,1,1,3,0.0,--,--,--,--,--
120,1200,1920,49,.75,1.5,0.75,False,,male,,fr,263,361,1,1,3,0.0,--,--,--,--,--
120,1200,1920,49,.75,1.5,0.75,False,,male,,fr,264,361,2,1,3,0.0,--,--,--,--,--
120,1200,1920,49,.75,1.5,0.75,False,,male,,fr,265,361,1,0,3,0.0,--,--,--,--,--
120,1200,1920,49,.75,1.5,0.75,False,,male,,fr,266,361,2,1,3,0.0,--,--,--,--,--
120,1200,1920,49,.75,1.5,0.75,False,,male,,fr,267,361,2,0,3,0.0,--,--,--,--,--
120,1200,1920,49,.75,1.5,0.75,False,,male,,fr,268,361,2,1,3,0.0,--,--,--,--,--
120,1200,1920,49,.75,1.5,0.75,False,,male,,fr,269,361,1,0,3,0.0,--,--,--,--,--
120,1200,1920,49,.75,1.5,0.75,False,,male,,fr,270,361,1,0,3,0.0,--,--,--,--,--
120,1200,1920,49,.75,1.5,0.75,False,,male,,fr,271,361,2,1,3,0.0,--,--,--,--,--
120,1200,1920,49,.75,1.5,0.75,False,,male,,fr,272,361,2,1,3,0.0,--,--,--,--,--
120,1200,1920,49,.75,1.5,0.75,False,,male,,fr,273,361,2,0,3,0.0,--,--,--,--,--
120,1200,1920,49,.75,1.5,0.75,False,,male,,fr,274,361,1,0,3,0.0,--,--,--,--,--
120,1200,1920,49,.75,1.5,0.75,False,,male,,fr,275,361,1,0,3,0.0,--,--,--,--,--
120,1200,1920,49,.75,1.5,0.75,False,,male,,fr,276,361,2,0,3,0.0,--,--,--,--,--
120,1200,1920,49,.75,1.5,0.75,False,,male,,fr,277,361,2,0,3,0.0,--,--,--,--,--
120,1200,1920,49,.75,1.5,0.75,False,,male,,fr,278,361,2,1,3,0.0,--,--,--,--,--
120,1200,1920,49,.75,1.5,0.75,False,,male,,fr,279,361,2,0,3,0.0,--,--,--,--,--
120,1200,1920,49,.75,1.5,0.75,False,,male,,fr,280,361,2,1,3,0.0,--,--,--,--,--
120,1200,1920,49,.75,1.5,0.75,False,,male,,fr,281,361,1,0,3,0.0,--,--,--,--,--
120,1200,1920,49,.75,1.5,0.75,False,,male,,fr,282,361,2,0,3,0.0,--,--,--,--,--
120,1200,1920,49,.75,1.5,0.75,False,,male,,fr,283,361,2,0,3,0.0,--,--,--,--,--
120,1200,1920,49,.75,1.5,0.75,False,,male,,fr,284,361,1,1,3,0.0,--,--,--,--,--
120,1200,1920,49,.75,1.5,0.75,False,,male,,fr,285,361,2,0,3,0.0,--,--,--,--,--
120,1200,1920,49,.75,1.5,0.75,False,,male,,fr,286,361,1,0,3,0.0,--,--,--,--,--
120,1200,1920,49,.75,1.5,0.75,False,,male,,fr,287,361,1,0,3,0.0,--,--,--,--,--
120,1200,1920,49,.75,1.5,0.75,False,,male,,fr,288,361,1,1,3,0.0,--,--,--,--,--
120,1200,1920,49,.75,1.5,0.75,False,,male,,fr,289,361,2,1,3,0.0,--,--,--,--,--
120,1200,1920,49,.75,1.5,0.75,False,,male,,fr,290,361,1,1,3,0.0,--,--,--,--,--
120,1200,1920,49,.75,1.5,0.75,False,,male,,fr,291,361,1,1,3,0.0,--,--,--,--,--
120,1200,1920,49,.75,1.5,0.75,False,,male,,fr,292,361,2,1,3,0.0,--,--,--,--,--
120,1200,1920,49,.75,1.5,0.75,False,,male,,fr,293,361,2,1,3,0.0,--,--,--,--,--
120,1200,1920,49,.75,1.5,0.75,False,,male,,fr,294,361,2,1,3,0.0,--,--,--,--,--
120,1200,1920,49,.75,1.5,0.75,False,,male,,fr,295,361,1,1,3,0.0,--,--,--,--,--
120,1200,1920,49,.75,1.5,0.75,False,,male,,fr,296,361,1,1,3,0.0,--,--,--,--,--
120,1200,1920,49,.75,1.5,0.75,False,,male,,fr,297,361,1,0,3,0.0,--,--,--,--,--
120,1200,1920,49,.75,1.5,0.75,False,,male,,fr,298,361,2,0,3,0.0,--,--,--,--,--
120,1200,1920,49,.75,1.5,0.75,False,,male,,fr,299,361,2,0,3,0.0,--,--,--,--,--
120,1200,1920,49,.75,1.5,0.75,False,,male,,fr,300,361,1,1,3,0.0,--,--,--,--,--
120,1200,1920,49,.75,1.5,0.75,False,,male,,fr,301,361,2,0,3,0.0,--,--,--,--,--
120,1200,1920,49,.75,1.5,0.75,False,,male,,fr,302,361,1,1,3,0.0,--,--,--,--,--
120,1200,1920,49,.75,1.5,0.75,False,,male,,fr,303,361,1,0,3,0.0,--,--,--,--,--
120,1200,1920,49,.75,1.5,0.75,False,,male,,fr,304,361,2,0,3,0.0,--,--,--,--,--
120,1200,1920,49,.75,1.5,0.75,False,,male,,fr,305,361,1,1,3,0.0,--,--,--,--,--
120,1200,1920,49,.75,1.5,0.75,False,,male,,fr,306,361,1,0,3,0.0,--,--,--,--,--
120,1200,1920,49,.75,1.5,0.75,False,,male,,fr,307,361,1,1,3,0.0,--,--,--,--,--
120,1200,1920,49,.75,1.5,0.75,False,,male,,fr,308,361,2,0,3,0.0,--,--,--,--,--
120,1200,1920,49,.75,1.5,0.75,False,,male,,fr,309,361,2,0,3,0.0,--,--,--,--,--
120,1200,1920,49,.75,1.5,0.75,False,,male,,fr,310,361,2,1,3,0.0,--,--,--,--,--
120,1200,1920,49,.75,1.5,0.75,False,,male,,fr,311,361,1,1,3,0.0,--,--,--,--,--
120,1200,1920,49,.75,1.5,0.75,False,,male,,fr,312,361,1,0,3,0.0,--,--,--,--,--
120,1200,1920,49,.75,1.5,0.75,False,,male,,fr,313,361,2,1,3,0.0,--,--,--,--,--
120,1200,1920,49,.75,1.5,0.75,False,,male,,fr,314,361,1,1,3,0.0,--,--,--,--,--
120,1200,1920,49,.75,1.5,0.75,False,,male,,fr,315,361,2,0,3,0.0,--,--,--,--,--
120,1200,1920,49,.75,1.5,0.75,False,,male,,fr,316,361,1,0,3,0.0,--,--,--,--,--
120,1200,1920,49,.75,1.5,0.75,False,,male,,fr,317,361,2,0,3,0.0,--,--,--,--,--
120,1200,1920,49,.75,1.5,0.75,False,,male,,fr,318,361,1,1,3,0.0,--,--,--,--,--
120,1200,1920,49,.75,1.5,0.75,False,,male,,fr,319,361,1,0,3,0.0,--,--,--,--,--
120,1200,1920,49,.75,1.5,0.75,False,,male,,fr,320,361,1,0,3,0.0,--,--,--,--,--
120,1200,1920,49,.75,1.5,0.75,False,,male,,fr,321,0,2,1,2,0.0,--,--,--,--,--
120,1200,1920,49,.75,1.5,0.75,False,,male,,fr,322,0,2,0,2,0.0,--,--,--,--,--
120,1200,1920,49,.75,1.5,0.75,False,,male,,fr,323,0,1,0,2,0.0,--,--,--,--,--
120,1200,1920,49,.75,1.5,0.75,False,,male,,fr,324,0,2,1,2,0.0,--,--,--,--,--
120,1200,1920,49,.75,1.5,0.75,False,,male,,fr,325,0,2,0,2,0.0,--,--,--,--,--
120,1200,1920,49,.75,1.5,0.75,False,,male,,fr,326,0,1,0,2,0.0,--,--,--,--,--
120,1200,1920,49,.75,1.5,0.75,False,,male,,fr,327,0,2,1,2,0.0,--,--,--,--,--
120,1200,1920,49,.75,1.5,0.75,False,,male,,fr,328,0,1,0,2,0.0,--,--,--,--,--
120,1200,1920,49,.75,1.5,0.75,False,,male,,fr,329,0,2,1,2,0.0,--,--,--,--,--
120,1200,1920,49,.75,1.5,0.75,False,,male,,fr,330,0,1,0,2,0.0,--,--,--,--,--
120,1200,1920,49,.75,1.5,0.75,False,,male,,fr,331,0,2,0,2,0.0,--,--,--,--,--
120,1200,1920,49,.75,1.5,0.75,False,,male,,fr,332,0,2,0,2,0.0,--,--,--,--,--
120,1200,1920,49,.75,1.5,0.75,False,,male,,fr,333,0,1,0,2,0.0,--,--,--,--,--
120,1200,1920,49,.75,1.5,0.75,False,,male,,fr,334,0,1,1,2,0.0,--,--,--,--,--
120,1200,1920,49,.75,1.5,0.75,False,,male,,fr,335,0,2,0,2,0.0,--,--,--,--,--
120,1200,1920,49,.75,1.5,0.75,False,,male,,fr,336,0,2,0,2,0.0,--,--,--,--,--
120,1200,1920,49,.75,1.5,0.75,False,,male,,fr,337,0,1,1,2,0.0,--,--,--,--,--
120,1200,1920,49,.75,1.5,0.75,False,,male,,fr,338,0,2,1,2,0.0,--,--,--,--,--
120,1200,1920,49,.75,1.5,0.75,False,,male,,fr,339,0,1,0,2,0.0,--,--,--,--,--
120,1200,1920,49,.75,1.5,0.75,False,,male,,fr,340,0,1,0,2,0.0,--,--,--,--,--
120,1200,1920,49,.75,1.5,0.75,False,,male,,fr,341,0,2,0,2,0.0,--,--,--,--,--
120,1200,1920,49,.75,1.5,0.75,False,,male,,fr,342,0,1,0,2,0.0,--,--,--,--,--
120,1200,1920,49,.75,1.5,0.75,False,,male,,fr,343,0,1,1,2,0.0,--,--,--,--,--
120,1200,1920,49,.75,1.5,0.75,False,,male,,fr,344,0,2,0,2,0.0,--,--,--,--,--
120,1200,1920,49,.75,1.5,0.75,False,,male,,fr,345,0,2,0,2,0.0,--,--,--,--,--
120,1200,1920,49,.75,1.5,0.75,False,,male,,fr,346,0,1,1,2,0.0,--,--,--,--,--
120,1200,1920,49,.75,1.5,0.75,False,,male,,fr,347,0,2,0,2,0.0,--,--,--,--,--
120,1200,1920,49,.75,1.5,0.75,False,,male,,fr,348,0,2,0,2,0.0,--,--,--,--,--
120,1200,1920,49,.75,1.5,0.75,False,,male,,fr,349,0,1,1,2,0.0,--,--,--,--,--
120,1200,1920,49,.75,1.5,0.75,False,,male,,fr,350,0,2,1,2,0.0,--,--,--,--,--
120,1200,1920,49,.75,1.5,0.75,False,,male,,fr,351,0,1,1,2,0.0,--,--,--,--,--
120,1200,1920,49,.75,1.5,0.75,False,,male,,fr,352,0,2,1,2,0.0,--,--,--,--,--
120,1200,1920,49,.75,1.5,0.75,False,,male,,fr,353,0,1,1,2,0.0,--,--,--,--,--
120,1200,1920,49,.75,1.5,0.75,False,,male,,fr,354,0,2,1,2,0.0,--,--,--,--,--
120,1200,1920,49,.75,1.5,0.75,False,,male,,fr,355,0,1,0,2,0.0,--,--,--,--,--
120,1200,1920,49,.75,1.5,0.75,False,,male,,fr,356,0,1,0,2,0.0,--,--,--,--,--
120,1200,1920,49,.75,1.5,0.75,False,,male,,fr,357,0,2,1,2,0.0,--,--,--,--,--
120,1200,1920,49,.75,1.5,0.75,False,,male,,fr,358,0,2,1,2,0.0,--,--,--,--,--
120,1200,1920,49,.75,1.5,0.75,False,,male,,fr,359,0,1,1,2,0.0,--,--,--,--,--
120,1200,1920,49,.75,1.5,0.75,False,,male,,fr,360,0,2,1,2,0.0,--,--,--,--,--
120,1200,1920,49,.75,1.5,0.75,False,,male,,fr,361,0,1,1,2,0.0,--,--,--,--,--
120,1200,1920,49,.75,1.5,0.75,False,,male,,fr,362,0,1,0,2,0.0,--,--,--,--,--
120,1200,1920,49,.75,1.5,0.75,False,,male,,fr,363,0,1,0,2,0.0,--,--,--,--,--
120,1200,1920,49,.75,1.5,0.75,False,,male,,fr,364,0,1,0,2,0.0,--,--,--,--,--
120,1200,1920,49,.75,1.5,0.75,False,,male,,fr,365,0,1,0,2,0.0,--,--,--,--,--
120,1200,1920,49,.75,1.5,0.75,False,,male,,fr,366,0,1,1,2,0.0,--,--,--,--,--
120,1200,1920,49,.75,1.5,0.75,False,,male,,fr,367,0,1,1,2,0.0,--,--,--,--,--
120,1200,1920,49,.75,1.5,0.75,False,,male,,fr,368,0,2,0,2,0.0,--,--,--,--,--
120,1200,1920,49,.75,1.5,0.75,False,,male,,fr,369,0,2,0,2,0.0,--,--,--,--,--
120,1200,1920,49,.75,1.5,0.75,False,,male,,fr,370,0,1,0,2,0.0,--,--,--,--,--
120,1200,1920,49,.75,1.5,0.75,False,,male,,fr,371,0,1,0,2,0.0,--,--,--,--,--
120,1200,1920,49,.75,1.5,0.75,False,,male,,fr,372,0,2,1,2,0.0,--,--,--,--,--
120,1200,1920,49,.75,1.5,0.75,False,,male,,fr,373,0,1,0,2,0.0,--,--,--,--,--
120,1200,1920,49,.75,1.5,0.75,False,,male,,fr,374,0,2,0,2,0.0,--,--,--,--,--
120,1200,1920,49,.75,1.5,0.75,False,,male,,fr,375,0,2,1,2,0.0,--,--,--,--,--
120,1200,1920,49,.75,1.5,0.75,False,,male,,fr,376,0,1,1,2,0.0,--,--,--,--,--
120,1200,1920,49,.75,1.5,0.75,False,,male,,fr,377,0,2,1,2,0.0,--,--,--,--,--
120,1200,1920,49,.75,1.5,0.75,False,,male,,fr,378,0,1,1,2,0.0,--,--,--,--,--
120,1200,1920,49,.75,1.5,0.75,False,,male,,fr,379,0,2,0,2,0.0,--,--,--,--,--
120,1200,1920,49,.75,1.5,0.75,False,,male,,fr,380,0,1,1,2,0.0,--,--,--,--,--
120,1200,1920,49,.75,1.5,0.75,False,,male,,fr,381,0,1,0,2,0.0,--,--,--,--,--
120,1200,1920,49,.75,1.5,0.75,False,,male,,fr,382,0,1,1,2,0.0,--,--,--,--,--
120,1200,1920,49,.75,1.5,0.75,False,,male,,fr,383,0,2,0,2,0.0,--,--,--,--,--
120,1200,1920,49,.75,1.5,0.75,False,,male,,fr,384,0,1,1,2,0.0,--,--,--,--,--
120,1200,1920,49,.75,1.5,0.75,False,,male,,fr,385,0,2,1,2,0.0,--,--,--,--,--
120,1200,1920,49,.75,1.5,0.75,False,,male,,fr,386,0,2,0,2,0.0,--,--,--,--,--
120,1200,1920,49,.75,1.5,0.75,False,,male,,fr,387,0,2,1,2,0.0,--,--,--,--,--
120,1200,1920,49,.75,1.5,0.75,False,,male,,fr,388,0,2,0,2,0.0,--,--,--,--,--
120,1200,1920,49,.75,1.5,0.75,False,,male,,fr,389,0,1,1,2,0.0,--,--,--,--,--
120,1200,1920,49,.75,1.5,0.75,False,,male,,fr,390,0,1,1,2,0.0,--,--,--,--,--
120,1200,1920,49,.75,1.5,0.75,False,,male,,fr,391,0,2,0,2,0.0,--,--,--,--,--
120,1200,1920,49,.75,1.5,0.75,False,,male,,fr,392,0,1,0,2,0.0,--,--,--,--,--
120,1200,1920,49,.75,1.5,0.75,False,,male,,fr,393,0,1,0,2,0.0,--,--,--,--,--
120,1200,1920,49,.75,1.5,0.75,False,,male,,fr,394,0,2,1,2,0.0,--,--,--,--,--
120,1200,1920,49,.75,1.5,0.75,False,,male,,fr,395,0,1,1,2,0.0,--,--,--,--,--
120,1200,1920,49,.75,1.5,0.75,False,,male,,fr,396,0,2,1,2,0.0,--,--,--,--,--
120,1200,1920,49,.75,1.5,0.75,False,,male,,fr,397,0,2,0,2,0.0,--,--,--,--,--
120,1200,1920,49,.75,1.5,0.75,False,,male,,fr,398,0,2,1,2,0.0,--,--,--,--,--
120,1200,1920,49,.75,1.5,0.75,False,,male,,fr,399,0,2,1,2,0.0,--,--,--,--,--
120,1200,1920,49,.75,1.5,0.75,False,,male,,fr,400,0,1,1,2,0.0,--,--,--,--,--
120,1200,1920,49,.75,1.5,0.75,False,,male,,fr,401,90,1,0,1,0.0,--,--,--,--,--
120,1200,1920,49,.75,1.5,0.75,False,,male,,fr,402,90,1,1,1,0.0,--,--,--,--,--
120,1200,1920,49,.75,1.5,0.75,False,,male,,fr,403,90,1,1,1,0.0,--,--,--,--,--
120,1200,1920,49,.75,1.5,0.75,False,,male,,fr,404,90,1,1,1,0.0,--,--,--,--,--
120,1200,1920,49,.75,1.5,0.75,False,,male,,fr,405,90,1,1,1,0.0,--,--,--,--,--
120,1200,1920,49,.75,1.5,0.75,False,,male,,fr,406,90,1,0,1,0.0,--,--,--,--,--
120,1200,1920,49,.75,1.5,0.75,False,,male,,fr,407,90,2,1,1,0.0,--,--,--,--,--
120,1200,1920,49,.75,1.5,0.75,False,,male,,fr,408,90,1,1,1,0.0,--,--,--,--,--
120,1200,1920,49,.75,1.5,0.75,False,,male,,fr,409,90,2,0,1,0.0,--,--,--,--,--
120,1200,1920,49,.75,1.5,0.75,False,,male,,fr,410,90,1,1,1,0.0,--,--,--,--,--
120,1200,1920,49,.75,1.5,0.75,False,,male,,fr,411,90,1,0,1,0.0,--,--,--,--,--
120,1200,1920,49,.75,1.5,0.75,False,,male,,fr,412,90,1,0,1,0.0,--,--,--,--,--
120,1200,1920,49,.75,1.5,0.75,False,,male,,fr,413,90,1,0,1,0.0,--,--,--,--,--
120,1200,1920,49,.75,1.5,0.75,False,,male,,fr,414,90,1,1,1,0.0,--,--,--,--,--
120,1200,1920,49,.75,1.5,0.75,False,,male,,fr,415,90,2,1,1,0.0,--,--,--,--,--
120,1200,1920,49,.75,1.5,0.75,False,,male,,fr,416,90,1,1,1,0.0,--,--,--,--,--
120,1200,1920,49,.75,1.5,0.75,False,,male,,fr,417,90,1,1,1,0.0,--,--,--,--,--
120,1200,1920,49,.75,1.5,0.75,False,,male,,fr,418,90,2,1,1,0.0,--,--,--,--,--
120,1200,1920,49,.75,1.5,0.75,False,,male,,fr,419,90,2,0,1,0.0,--,--,--,--,--
120,1200,1920,49,.75,1.5,0.75,False,,male,,fr,420,90,1,0,1,0.0,--,--,--,--,--
120,1200,1920,49,.75,1.5,0.75,False,,male,,fr,421,90,2,1,1,0.0,--,--,--,--,--
120,1200,1920,49,.75,1.5,0.75,False,,male,,fr,422,90,2,0,1,0.0,--,--,--,--,--
120,1200,1920,49,.75,1.5,0.75,False,,male,,fr,423,90,1,0,1,0.0,--,--,--,--,--
120,1200,1920,49,.75,1.5,0.75,False,,male,,fr,424,90,1,1,1,0.0,--,--,--,--,--
120,1200,1920,49,.75,1.5,0.75,False,,male,,fr,425,90,1,0,1,0.0,--,--,--,--,--
120,1200,1920,49,.75,1.5,0.75,False,,male,,fr,426,90,2,1,1,0.0,--,--,--,--,--
120,1200,1920,49,.75,1.5,0.75,False,,male,,fr,427,90,1,0,1,0.0,--,--,--,--,--
120,1200,1920,49,.75,1.5,0.75,False,,male,,fr,428,90,2,0,1,0.0,--,--,--,--,--
120,1200,1920,49,.75,1.5,0.75,False,,male,,fr,429,90,1,0,1,0.0,--,--,--,--,--
120,1200,1920,49,.75,1.5,0.75,False,,male,,fr,430,90,2,1,1,0.0,--,--,--,--,--
120,1200,1920,49,.75,1.5,0.75,False,,male,,fr,431,90,2,0,1,0.0,--,--,--,--,--
120,1200,1920,49,.75,1.5,0.75,False,,male,,fr,432,90,1,1,1,0.0,--,--,--,--,--
120,1200,1920,49,.75,1.5,0.75,False,,male,,fr,433,90,1,1,1,0.0,--,--,--,--,--
120,1200,1920,49,.75,1.5,0.75,False,,male,,fr,434,90,2,0,1,0.0,--,--,--,--,--
120,1200,1920,49,.75,1.5,0.75,False,,male,,fr,435,90,2,0,1,0.0,--,--,--,--,--
120,1200,1920,49,.75,1.5,0.75,False,,male,,fr,436,90,1,1,1,0.0,--,--,--,--,--
120,1200,1920,49,.75,1.5,0.75,False,,male,,fr,437,90,1,0,1,0.0,--,--,--,--,--
120,1200,1920,49,.75,1.5,0.75,False,,male,,fr,438,90,2,0,1,0.0,--,--,--,--,--
120,1200,1920,49,.75,1.5,0.75,False,,male,,fr,439,90,1,0,1,0.0,--,--,--,--,--
120,1200,1920,49,.75,1.5,0.75,False,,male,,fr,440,90,2,0,1,0.0,--,--,--,--,--
120,1200,1920,49,.75,1.5,0.75,False,,male,,fr,441,90,2,1,1,0.0,--,--,--,--,--
120,1200,1920,49,.75,1.5,0.75,False,,male,,fr,442,90,1,0,1,0.0,--,--,--,--,--
120,1200,1920,49,.75,1.5,0.75,False,,male,,fr,443,90,2,1,1,0.0,--,--,--,--,--
120,1200,1920,49,.75,1.5,0.75,False,,male,,fr,444,90,2,1,1,0.0,--,--,--,--,--
120,1200,1920,49,.75,1.5,0.75,False,,male,,fr,445,90,1,0,1,0.0,--,--,--,--,--
120,1200,1920,49,.75,1.5,0.75,False,,male,,fr,446,90,2,1,1,0.0,--,--,--,--,--
120,1200,1920,49,.75,1.5,0.75,False,,male,,fr,447,90,1,1,1,0.0,--,--,--,--,--
120,1200,1920,49,.75,1.5,0.75,False,,male,,fr,448,90,1,1,1,0.0,--,--,--,--,--
120,1200,1920,49,.75,1.5,0.75,False,,male,,fr,449,90,1,0,1,0.0,--,--,--,--,--
120,1200,1920,49,.75,1.5,0.75,False,,male,,fr,450,90,2,0,1,0.0,--,--,--,--,--
120,1200,1920,49,.75,1.5,0.75,False,,male,,fr,451,90,1,1,1,0.0,--,--,--,--,--
120,1200,1920,49,.75,1.5,0.75,False,,male,,fr,452,90,2,1,1,0.0,--,--,--,--,--
120,1200,1920,49,.75,1.5,0.75,False,,male,,fr,453,90,2,1,1,0.0,--,--,--,--,--
120,1200,1920,49,.75,1.5,0.75,False,,male,,fr,454,90,1,1,1,0.0,--,--,--,--,--
120,1200,1920,49,.75,1.5,0.75,False,,male,,fr,455,90,1,0,1,0.0,--,--,--,--,--
120,1200,1920,49,.75,1.5,0.75,False,,male,,fr,456,90,1,0,1,0.0,--,--,--,--,--
120,1200,1920,49,.75,1.5,0.75,False,,male,,fr,457,90,2,0,1,0.0,--,--,--,--,--
120,1200,1920,49,.75,1.5,0.75,False,,male,,fr,458,90,2,0,1,0.0,--,--,--,--,--
120,1200,1920,49,.75,1.5,0.75,False,,male,,fr,459,90,2,1,1,0.0,--,--,--,--,--
120,1200,1920,49,.75,1.5,0.75,False,,male,,fr,460,90,2,0,1,0.0,--,--,--,--,--
120,1200,1920,49,.75,1.5,0.75,False,,male,,fr,461,90,2,1,1,0.0,--,--,--,--,--
120,1200,1920,49,.75,1.5,0.75,False,,male,,fr,462,90,1,1,1,0.0,--,--,--,--,--
120,1200,1920,49,.75,1.5,0.75,False,,male,,fr,463,90,2,0,1,0.0,--,--,--,--,--
120,1200,1920,49,.75,1.5,0.75,False,,male,,fr,464,90,1,0,1,0.0,--,--,--,--,--
120,1200,1920,49,.75,1.5,0.75,False,,male,,fr,465,90,2,0,1,0.0,--,--,--,--,--
120,1200,1920,49,.75,1.5,0.75,False,,male,,fr,466,90,2,0,1,0.0,--,--,--,--,--
120,1200,1920,49,.75,1.5,0.75,False,,male,,fr,467,90,1,1,1,0.0,--,--,--,--,--
120,1200,1920,49,.75,1.5,0.75,False,,male,,fr,468,90,1,1,1,0.0,--,--,--,--,--
120,1200,1920,49,.75,1.5,0.75,False,,male,,fr,469,90,2,0,1,0.0,--,--,--,--,--
120,1200,1920,49,.75,1.5,0.75,False,,male,,fr,470,90,2,0,1,0.0,--,--,--,--,--
120,1200,1920,49,.75,1.5,0.75,False,,male,,fr,471,90,1,0,1,0.0,--,--,--,--,--
120,1200,1920,49,.75,1.5,0.75,False,,male,,fr,472,90,2,1,1,0.0,--,--,--,--,--
120,1200,1920,49,.75,1.5,0.75,False,,male,,fr,473,90,2,1,1,0.0,--,--,--,--,--
120,1200,1920,49,.75,1.5,0.75,False,,male,,fr,474,90,2,1,1,0.0,--,--,--,--,--
120,1200,1920,49,.75,1.5,0.75,False,,male,,fr,475,90,2,0,1,0.0,--,--,--,--,--
120,1200,1920,49,.75,1.5,0.75,False,,male,,fr,476,90,2,1,1,0.0,--,--,--,--,--
120,1200,1920,49,.75,1.5,0.75,False,,male,,fr,477,90,2,1,1,0.0,--,--,--,--,--
120,1200,1920,49,.75,1.5,0.75,False,,male,,fr,478,90,1,0,1,0.0,--,--,--,--,--
120,1200,1920,49,.75,1.5,0.75,False,,male,,fr,479,90,2,1,1,0.0,--,--,--,--,--
120,1200,1920,49,.75,1.5,0.75,False,,male,,fr,480,90,2,0,1,0.0,--,--,--,--,--
120,1200,1920,49,.75,1.5,0.75,False,,male,,fr,481,0,2,1,2,0.0,--,--,--,--,--
120,1200,1920,49,.75,1.5,0.75,False,,male,,fr,482,0,2,0,2,0.0,--,--,--,--,--
120,1200,1920,49,.75,1.5,0.75,False,,male,,fr,483,0,1,0,2,0.0,--,--,--,--,--
120,1200,1920,49,.75,1.5,0.75,False,,male,,fr,484,0,2,1,2,0.0,--,--,--,--,--
120,1200,1920,49,.75,1.5,0.75,False,,male,,fr,485,0,2,0,2,0.0,--,--,--,--,--
120,1200,1920,49,.75,1.5,0.75,False,,male,,fr,486,0,1,0,2,0.0,--,--,--,--,--
120,1200,1920,49,.75,1.5,0.75,False,,male,,fr,487,0,2,1,2,0.0,--,--,--,--,--
120,1200,1920,49,.75,1.5,0.75,False,,male,,fr,488,0,1,0,2,0.0,--,--,--,--,--
120,1200,1920,49,.75,1.5,0.75,False,,male,,fr,489,0,2,1,2,0.0,--,--,--,--,--
120,1200,1920,49,.75,1.5,0.75,False,,male,,fr,490,0,1,0,2,0.0,--,--,--,--,--
120,1200,1920,49,.75,1.5,0.75,False,,male,,fr,491,0,2,0,2,0.0,--,--,--,--,--
120,1200,1920,49,.75,1.5,0.75,False,,male,,fr,492,0,2,0,2,0.0,--,--,--,--,--
120,1200,1920,49,.75,1.5,0.75,False,,male,,fr,493,0,1,0,2,0.0,--,--,--,--,--
120,1200,1920,49,.75,1.5,0.75,False,,male,,fr,494,0,1,1,2,0.0,--,--,--,--,--
120,1200,1920,49,.75,1.5,0.75,False,,male,,fr,495,0,2,0,2,0.0,--,--,--,--,--
120,1200,1920,49,.75,1.5,0.75,False,,male,,fr,496,0,2,0,2,0.0,--,--,--,--,--
120,1200,1920,49,.75,1.5,0.75,False,,male,,fr,497,0,1,1,2,0.0,--,--,--,--,--
120,1200,1920,49,.75,1.5,0.75,False,,male,,fr,498,0,2,1,2,0.0,--,--,--,--,--
120,1200,1920,49,.75,1.5,0.75,False,,male,,fr,499,0,1,0,2,0.0,--,--,--,--,--
120,1200,1920,49,.75,1.5,0.75,False,,male,,fr,500,0,1,0,2,0.0,--,--,--,--,--
120,1200,1920,49,.75,1.5,0.75,False,,male,,fr,501,0,2,0,2,0.0,--,--,--,--,--
120,1200,1920,49,.75,1.5,0.75,False,,male,,fr,502,0,1,0,2,0.0,--,--,--,--,--
120,1200,1920,49,.75,1.5,0.75,False,,male,,fr,503,0,1,1,2,0.0,--,--,--,--,--
120,1200,1920,49,.75,1.5,0.75,False,,male,,fr,504,0,2,0,2,0.0,--,--,--,--,--
120,1200,1920,49,.75,1.5,0.75,False,,male,,fr,505,0,2,0,2,0.0,--,--,--,--,--
120,1200,1920,49,.75,1.5,0.75,False,,male,,fr,506,0,1,1,2,0.0,--,--,--,--,--
120,1200,1920,49,.75,1.5,0.75,False,,male,,fr,507,0,2,0,2,0.0,--,--,--,--,--
120,1200,1920,49,.75,1.5,0.75,False,,male,,fr,508,0,2,0,2,0.0,--,--,--,--,--
120,1200,1920,49,.75,1.5,0.75,False,,male,,fr,509,0,1,1,2,0.0,--,--,--,--,--
120,1200,1920,49,.75,1.5,0.75,False,,male,,fr,510,0,2,1,2,0.0,--,--,--,--,--
120,1200,1920,49,.75,1.5,0.75,False,,male,,fr,511,0,1,1,2,0.0,--,--,--,--,--
120,1200,1920,49,.75,1.5,0.75,False,,male,,fr,512,0,2,1,2,0.0,--,--,--,--,--
120,1200,1920,49,.75,1.5,0.75,False,,male,,fr,513,0,1,1,2,0.0,--,--,--,--,--
120,1200,1920,49,.75,1.5,0.75,False,,male,,fr,514,0,2,1,2,0.0,--,--,--,--,--
120,1200,1920,49,.75,1.5,0.75,False,,male,,fr,515,0,1,0,2,0.0,--,--,--,--,--
120,1200,1920,49,.75,1.5,0.75,False,,male,,fr,516,0,1,0,2,0.0,--,--,--,--,--
120,1200,1920,49,.75,1.5,0.75,False,,male,,fr,517,0,2,1,2,0.0,--,--,--,--,--
120,1200,1920,49,.75,1.5,0.75,False,,male,,fr,518,0,2,1,2,0.0,--,--,--,--,--
120,1200,1920,49,.75,1.5,0.75,False,,male,,fr,519,0,1,1,2,0.0,--,--,--,--,--
120,1200,1920,49,.75,1.5,0.75,False,,male,,fr,520,0,2,1,2,0.0,--,--,--,--,--
120,1200,1920,49,.75,1.5,0.75,False,,male,,fr,521,0,1,1,2,0.0,--,--,--,--,--
120,1200,1920,49,.75,1.5,0.75,False,,male,,fr,522,0,1,0,2,0.0,--,--,--,--,--
120,1200,1920,49,.75,1.5,0.75,False,,male,,fr,523,0,1,0,2,0.0,--,--,--,--,--
120,1200,1920,49,.75,1.5,0.75,False,,male,,fr,524,0,1,0,2,0.0,--,--,--,--,--
120,1200,1920,49,.75,1.5,0.75,False,,male,,fr,525,0,1,0,2,0.0,--,--,--,--,--
120,1200,1920,49,.75,1.5,0.75,False,,male,,fr,526,0,1,1,2,0.0,--,--,--,--,--
120,1200,1920,49,.75,1.5,0.75,False,,male,,fr,527,0,1,1,2,0.0,--,--,--,--,--
120,1200,1920,49,.75,1.5,0.75,False,,male,,fr,528,0,2,0,2,0.0,--,--,--,--,--
120,1200,1920,49,.75,1.5,0.75,False,,male,,fr,529,0,2,0,2,0.0,--,--,--,--,--
120,1200,1920,49,.75,1.5,0.75,False,,male,,fr,530,0,1,0,2,0.0,--,--,--,--,--
120,1200,1920,49,.75,1.5,0.75,False,,male,,fr,531,0,1,0,2,0.0,--,--,--,--,--
120,1200,1920,49,.75,1.5,0.75,False,,male,,fr,532,0,2,1,2,0.0,--,--,--,--,--
120,1200,1920,49,.75,1.5,0.75,False,,male,,fr,533,0,1,0,2,0.0,--,--,--,--,--
120,1200,1920,49,.75,1.5,0.75,False,,male,,fr,534,0,2,0,2,0.0,--,--,--,--,--
120,1200,1920,49,.75,1.5,0.75,False,,male,,fr,535,0,2,1,2,0.0,--,--,--,--,--
120,1200,1920,49,.75,1.5,0.75,False,,male,,fr,536,0,1,1,2,0.0,--,--,--,--,--
120,1200,1920,49,.75,1.5,0.75,False,,male,,fr,537,0,2,1,2,0.0,--,--,--,--,--
120,1200,1920,49,.75,1.5,0.75,False,,male,,fr,538,0,1,1,2,0.0,--,--,--,--,--
120,1200,1920,49,.75,1.5,0.75,False,,male,,fr,539,0,2,0,2,0.0,--,--,--,--,--
120,1200,1920,49,.75,1.5,0.75,False,,male,,fr,540,0,1,1,2,0.0,--,--,--,--,--
120,1200,1920,49,.75,1.5,0.75,False,,male,,fr,541,0,1,0,2,0.0,--,--,--,--,--
120,1200,1920,49,.75,1.5,0.75,False,,male,,fr,542,0,1,1,2,0.0,--,--,--,--,--
120,1200,1920,49,.75,1.5,0.75,False,,male,,fr,543,0,2,0,2,0.0,--,--,--,--,--
120,1200,1920,49,.75,1.5,0.75,False,,male,,fr,544,0,1,1,2,0.0,--,--,--,--,--
120,1200,1920,49,.75,1.5,0.75,False,,male,,fr,545,0,2,1,2,0.0,--,--,--,--,--
120,1200,1920,49,.75,1.5,0.75,False,,male,,fr,546,0,2,0,2,0.0,--,--,--,--,--
120,1200,1920,49,.75,1.5,0.75,False,,male,,fr,547,0,2,1,2,0.0,--,--,--,--,--
120,1200,1920,49,.75,1.5,0.75,False,,male,,fr,548,0,2,0,2,0.0,--,--,--,--,--
120,1200,1920,49,.75,1.5,0.75,False,,male,,fr,549,0,1,1,2,0.0,--,--,--,--,--
120,1200,1920,49,.75,1.5,0.75,False,,male,,fr,550,0,1,1,2,0.0,--,--,--,--,--
120,1200,1920,49,.75,1.5,0.75,False,,male,,fr,551,0,2,0,2,0.0,--,--,--,--,--
120,1200,1920,49,.75,1.5,0.75,False,,male,,fr,552,0,1,0,2,0.0,--,--,--,--,--
120,1200,1920,49,.75,1.5,0.75,False,,male,,fr,553,0,1,0,2,0.0,--,--,--,--,--
120,1200,1920,49,.75,1.5,0.75,False,,male,,fr,554,0,2,1,2,0.0,--,--,--,--,--
120,1200,1920,49,.75,1.5,0.75,False,,male,,fr,555,0,1,1,2,0.0,--,--,--,--,--
120,1200,1920,49,.75,1.5,0.75,False,,male,,fr,556,0,2,1,2,0.0,--,--,--,--,--
120,1200,1920,49,.75,1.5,0.75,False,,male,,fr,557,0,2,0,2,0.0,--,--,--,--,--
120,1200,1920,49,.75,1.5,0.75,False,,male,,fr,558,0,2,1,2,0.0,--,--,--,--,--
120,1200,1920,49,.75,1.5,0.75,False,,male,,fr,559,0,2,1,2,0.0,--,--,--,--,--
120,1200,1920,49,.75,1.5,0.75,False,,male,,fr,560,0,1,1,2,0.0,--,--,--,--,--
120,1200,1920,49,.75,1.5,0.75,False,,male,,fr,561,361,2,1,3,0.0,--,--,--,--,--
120,1200,1920,49,.75,1.5,0.75,False,,male,,fr,562,361,2,1,3,0.0,--,--,--,--,--
120,1200,1920,49,.75,1.5,0.75,False,,male,,fr,563,361,1,1,3,0.0,--,--,--,--,--
120,1200,1920,49,.75,1.5,0.75,False,,male,,fr,564,361,2,0,3,0.0,--,--,--,--,--
120,1200,1920,49,.75,1.5,0.75,False,,male,,fr,565,361,2,1,3,0.0,--,--,--,--,--
120,1200,1920,49,.75,1.5,0.75,False,,male,,fr,566,361,2,0,3,0.0,--,--,--,--,--
120,1200,1920,49,.75,1.5,0.75,False,,male,,fr,567,361,1,1,3,0.0,--,--,--,--,--
120,1200,1920,49,.75,1.5,0.75,False,,male,,fr,568,361,2,1,3,0.0,--,--,--,--,--
120,1200,1920,49,.75,1.5,0.75,False,,male,,fr,569,361,1,1,3,0.0,--,--,--,--,--
120,1200,1920,49,.75,1.5,0.75,False,,male,,fr,570,361,2,0,3,0.0,--,--,--,--,--
120,1200,1920,49,.75,1.5,0.75,False,,male,,fr,571,361,1,0,3,0.0,--,--,--,--,--
120,1200,1920,49,.75,1.5,0.75,False,,male,,fr,572,361,2,0,3,0.0,--,--,--,--,--
120,1200,1920,49,.75,1.5,0.75,False,,male,,fr,573,361,2,1,3,0.0,--,--,--,--,--
120,1200,1920,49,.75,1.5,0.75,False,,male,,fr,574,361,1,1,3,0.0,--,--,--,--,--
120,1200,1920,49,.75,1.5,0.75,False,,male,,fr,575,361,1,0,3,0.0,--,--,--,--,--
120,1200,1920,49,.75,1.5,0.75,False,,male,,fr,576,361,2,1,3,0.0,--,--,--,--,--
120,1200,1920,49,.75,1.5,0.75,False,,male,,fr,577,361,1,0,3,0.0,--,--,--,--,--
120,1200,1920,49,.75,1.5,0.75,False,,male,,fr,578,361,1,1,3,0.0,--,--,--,--,--
120,1200,1920,49,.75,1.5,0.75,False,,male,,fr,579,361,1,0,3,0.0,--,--,--,--,--
120,1200,1920,49,.75,1.5,0.75,False,,male,,fr,580,361,2,1,3,0.0,--,--,--,--,--
120,1200,1920,49,.75,1.5,0.75,False,,male,,fr,581,361,1,0,3,0.0,--,--,--,--,--
120,1200,1920,49,.75,1.5,0.75,False,,male,,fr,582,361,1,1,3,0.0,--,--,--,--,--
120,1200,1920,49,.75,1.5,0.75,False,,male,,fr,583,361,1,1,3,0.0,--,--,--,--,--
120,1200,1920,49,.75,1.5,0.75,False,,male,,fr,584,361,2,1,3,0.0,--,--,--,--,--
120,1200,1920,49,.75,1.5,0.75,False,,male,,fr,585,361,1,0,3,0.0,--,--,--,--,--
120,1200,1920,49,.75,1.5,0.75,False,,male,,fr,586,361,2,1,3,0.0,--,--,--,--,--
120,1200,1920,49,.75,1.5,0.75,False,,male,,fr,587,361,2,0,3,0.0,--,--,--,--,--
120,1200,1920,49,.75,1.5,0.75,False,,male,,fr,588,361,2,1,3,0.0,--,--,--,--,--
120,1200,1920,49,.75,1.5,0.75,False,,male,,fr,589,361,1,0,3,0.0,--,--,--,--,--
120,1200,1920,49,.75,1.5,0.75,False,,male,,fr,590,361,1,0,3,0.0,--,--,--,--,--
120,1200,1920,49,.75,1.5,0.75,False,,male,,fr,591,361,2,1,3,0.0,--,--,--,--,--
120,1200,1920,49,.75,1.5,0.75,False,,male,,fr,592,361,2,1,3,0.0,--,--,--,--,--
120,1200,1920,49,.75,1.5,0.75,False,,male,,fr,593,361,2,0,3,0.0,--,--,--,--,--
120,1200,1920,49,.75,1.5,0.75,False,,male,,fr,594,361,1,0,3,0.0,--,--,--,--,--
120,1200,1920,49,.75,1.5,0.75,False,,male,,fr,595,361,1,0,3,0.0,--,--,--,--,--
120,1200,1920,49,.75,1.5,0.75,False,,male,,fr,596,361,2,0,3,0.0,--,--,--,--,--
120,1200,1920,49,.75,1.5,0.75,False,,male,,fr,597,361,2,0,3,0.0,--,--,--,--,--
120,1200,1920,49,.75,1.5,0.75,False,,male,,fr,598,361,2,1,3,0.0,--,--,--,--,--
120,1200,1920,49,.75,1.5,0.75,False,,male,,fr,599,361,2,0,3,0.0,--,--,--,--,--
120,1200,1920,49,.75,1.5,0.75,False,,male,,fr,600,361,2,1,3,0.0,--,--,--,--,--
120,1200,1920,49,.75,1.5,0.75,False,,male,,fr,601,361,1,0,3,0.0,--,--,--,--,--
120,1200,1920,49,.75,1.5,0.75,False,,male,,fr,602,361,2,0,3,0.0,--,--,--,--,--
120,1200,1920,49,.75,1.5,0.75,False,,male,,fr,603,361,2,0,3,0.0,--,--,--,--,--
120,1200,1920,49,.75,1.5,0.75,False,,male,,fr,604,361,1,1,3,0.0,--,--,--,--,--
120,1200,1920,49,.75,1.5,0.75,False,,male,,fr,605,361,2,0,3,0.0,--,--,--,--,--
120,1200,1920,49,.75,1.5,0.75,False,,male,,fr,606,361,1,0,3,0.0,--,--,--,--,--
120,1200,1920,49,.75,1.5,0.75,False,,male,,fr,607,361,1,0,3,0.0,--,--,--,--,--
120,1200,1920,49,.75,1.5,0.75,False,,male,,fr,608,361,1,1,3,0.0,--,--,--,--,--
120,1200,1920,49,.75,1.5,0.75,False,,male,,fr,609,361,2,1,3,0.0,--,--,--,--,--
120,1200,1920,49,.75,1.5,0.75,False,,male,,fr,610,361,1,1,3,0.0,--,--,--,--,--
120,1200,1920,49,.75,1.5,0.75,False,,male,,fr,611,361,1,1,3,0.0,--,--,--,--,--
120,1200,1920,49,.75,1.5,0.75,False,,male,,fr,612,361,2,1,3,0.0,--,--,--,--,--
120,1200,1920,49,.75,1.5,0.75,False,,male,,fr,613,361,2,1,3,0.0,--,--,--,--,--
120,1200,1920,49,.75,1.5,0.75,False,,male,,fr,614,361,2,1,3,0.0,--,--,--,--,--
120,1200,1920,49,.75,1.5,0.75,False,,male,,fr,615,361,1,1,3,0.0,--,--,--,--,--
120,1200,1920,49,.75,1.5,0.75,False,,male,,fr,616,361,1,1,3,0.0,--,--,--,--,--
120,1200,1920,49,.75,1.5,0.75,False,,male,,fr,617,361,1,0,3,0.0,--,--,--,--,--
120,1200,1920,49,.75,1.5,0.75,False,,male,,fr,618,361,2,0,3,0.0,--,--,--,--,--
120,1200,1920,49,.75,1.5,0.75,False,,male,,fr,619,361,2,0,3,0.0,--,--,--,--,--
120,1200,1920,49,.75,1.5,0.75,False,,male,,fr,620,361,1,1,3,0.0,--,--,--,--,--
120,1200,1920,49,.75,1.5,0.75,False,,male,,fr,621,361,2,0,3,0.0,--,--,--,--,--
120,1200,1920,49,.75,1.5,0.75,False,,male,,fr,622,361,1,1,3,0.0,--,--,--,--,--
120,1200,1920,49,.75,1.5,0.75,False,,male,,fr,623,361,1,0,3,0.0,--,--,--,--,--
120,1200,1920,49,.75,1.5,0.75,False,,male,,fr,624,361,2,0,3,0.0,--,--,--,--,--
120,1200,1920,49,.75,1.5,0.75,False,,male,,fr,625,361,1,1,3,0.0,--,--,--,--,--
120,1200,1920,49,.75,1.5,0.75,False,,male,,fr,626,361,1,0,3,0.0,--,--,--,--,--
120,1200,1920,49,.75,1.5,0.75,False,,male,,fr,627,361,1,1,3,0.0,--,--,--,--,--
120,1200,1920,49,.75,1.5,0.75,False,,male,,fr,628,361,2,0,3,0.0,--,--,--,--,--
120,1200,1920,49,.75,1.5,0.75,False,,male,,fr,629,361,2,0,3,0.0,--,--,--,--,--
120,1200,1920,49,.75,1.5,0.75,False,,male,,fr,630,361,2,1,3,0.0,--,--,--,--,--
120,1200,1920,49,.75,1.5,0.75,False,,male,,fr,631,361,1,1,3,0.0,--,--,--,--,--
120,1200,1920,49,.75,1.5,0.75,False,,male,,fr,632,361,1,0,3,0.0,--,--,--,--,--
120,1200,1920,49,.75,1.5,0.75,False,,male,,fr,633,361,2,1,3,0.0,--,--,--,--,--
120,1200,1920,49,.75,1.5,0.75,False,,male,,fr,634,361,1,1,3,0.0,--,--,--,--,--
120,1200,1920,49,.75,1.5,0.75,False,,male,,fr,635,361,2,0,3,0.0,--,--,--,--,--
120,1200,1920,49,.75,1.5,0.75,False,,male,,fr,636,361,1,0,3,0.0,--,--,--,--,--
120,1200,1920,49,.75,1.5,0.75,False,,male,,fr,637,361,2,0,3,0.0,--,--,--,--,--
120,1200,1920,49,.75,1.5,0.75,False,,male,,fr,638,361,1,1,3,0.0,--,--,--,--,--
120,1200,1920,49,.75,1.5,0.75,False,,male,,fr,639,361,1,0,3,0.0,--,--,--,--,--
120,1200,1920,49,.75,1.5,0.75,False,,male,,fr,640,361,1,0,3,0.0,--,--,--,--,--
120,1200,1920,49,.75,1.5,0.75,False,,male,,fr,641,90,1,0,1,0.0,--,--,--,--,--
120,1200,1920,49,.75,1.5,0.75,False,,male,,fr,642,90,1,1,1,0.0,--,--,--,--,--
120,1200,1920,49,.75,1.5,0.75,False,,male,,fr,643,90,1,1,1,0.0,--,--,--,--,--
120,1200,1920,49,.75,1.5,0.75,False,,male,,fr,644,90,1,1,1,0.0,--,--,--,--,--
120,1200,1920,49,.75,1.5,0.75,False,,male,,fr,645,90,1,1,1,0.0,--,--,--,--,--
120,1200,1920,49,.75,1.5,0.75,False,,male,,fr,646,90,1,0,1,0.0,--,--,--,--,--
120,1200,1920,49,.75,1.5,0.75,False,,male,,fr,647,90,2,1,1,0.0,--,--,--,--,--
120,1200,1920,49,.75,1.5,0.75,False,,male,,fr,648,90,1,1,1,0.0,--,--,--,--,--
120,1200,1920,49,.75,1.5,0.75,False,,male,,fr,649,90,2,0,1,0.0,--,--,--,--,--
120,1200,1920,49,.75,1.5,0.75,False,,male,,fr,650,90,1,1,1,0.0,--,--,--,--,--
120,1200,1920,49,.75,1.5,0.75,False,,male,,fr,651,90,1,0,1,0.0,--,--,--,--,--
120,1200,1920,49,.75,1.5,0.75,False,,male,,fr,652,90,1,0,1,0.0,--,--,--,--,--
120,1200,1920,49,.75,1.5,0.75,False,,male,,fr,653,90,1,0,1,0.0,--,--,--,--,--
120,1200,1920,49,.75,1.5,0.75,False,,male,,fr,654,90,1,1,1,0.0,--,--,--,--,--
120,1200,1920,49,.75,1.5,0.75,False,,male,,fr,655,90,2,1,1,0.0,--,--,--,--,--
120,1200,1920,49,.75,1.5,0.75,False,,male,,fr,656,90,1,1,1,0.0,--,--,--,--,--
120,1200,1920,49,.75,1.5,0.75,False,,male,,fr,657,90,1,1,1,0.0,--,--,--,--,--
120,1200,1920,49,.75,1.5,0.75,False,,male,,fr,658,90,2,1,1,0.0,--,--,--,--,--
120,1200,1920,49,.75,1.5,0.75,False,,male,,fr,659,90,2,0,1,0.0,--,--,--,--,--
120,1200,1920,49,.75,1.5,0.75,False,,male,,fr,660,90,1,0,1,0.0,--,--,--,--,--
120,1200,1920,49,.75,1.5,0.75,False,,male,,fr,661,90,2,1,1,0.0,--,--,--,--,--
120,1200,1920,49,.75,1.5,0.75,False,,male,,fr,662,90,2,0,1,0.0,--,--,--,--,--
120,1200,1920,49,.75,1.5,0.75,False,,male,,fr,663,90,1,0,1,0.0,--,--,--,--,--
120,1200,1920,49,.75,1.5,0.75,False,,male,,fr,664,90,1,1,1,0.0,--,--,--,--,--
120,1200,1920,49,.75,1.5,0.75,False,,male,,fr,665,90,1,0,1,0.0,--,--,--,--,--
120,1200,1920,49,.75,1.5,0.75,False,,male,,fr,666,90,2,1,1,0.0,--,--,--,--,--
120,1200,1920,49,.75,1.5,0.75,False,,male,,fr,667,90,1,0,1,0.0,--,--,--,--,--
120,1200,1920,49,.75,1.5,0.75,False,,male,,fr,668,90,2,0,1,0.0,--,--,--,--,--
120,1200,1920,49,.75,1.5,0.75,False,,male,,fr,669,90,1,0,1,0.0,--,--,--,--,--
120,1200,1920,49,.75,1.5,0.75,False,,male,,fr,670,90,2,1,1,0.0,--,--,--,--,--
120,1200,1920,49,.75,1.5,0.75,False,,male,,fr,671,90,2,0,1,0.0,--,--,--,--,--
120,1200,1920,49,.75,1.5,0.75,False,,male,,fr,672,90,1,1,1,0.0,--,--,--,--,--
120,1200,1920,49,.75,1.5,0.75,False,,male,,fr,673,90,1,1,1,0.0,--,--,--,--,--
120,1200,1920,49,.75,1.5,0.75,False,,male,,fr,674,90,2,0,1,0.0,--,--,--,--,--
120,1200,1920,49,.75,1.5,0.75,False,,male,,fr,675,90,2,0,1,0.0,--,--,--,--,--
120,1200,1920,49,.75,1.5,0.75,False,,male,,fr,676,90,1,1,1,0.0,--,--,--,--,--
120,1200,1920,49,.75,1.5,0.75,False,,male,,fr,677,90,1,0,1,0.0,--,--,--,--,--
120,1200,1920,49,.75,1.5,0.75,False,,male,,fr,678,90,2,0,1,0.0,--,--,--,--,--
120,1200,1920,49,.75,1.5,0.75,False,,male,,fr,679,90,1,0,1,0.0,--,--,--,--,--
120,1200,1920,49,.75,1.5,0.75,False,,male,,fr,680,90,2,0,1,0.0,--,--,--,--,--
120,1200,1920,49,.75,1.5,0.75,False,,male,,fr,681,90,2,1,1,0.0,--,--,--,--,--
120,1200,1920,49,.75,1.5,0.75,False,,male,,fr,682,90,1,0,1,0.0,--,--,--,--,--
120,1200,1920,49,.75,1.5,0.75,False,,male,,fr,683,90,2,1,1,0.0,--,--,--,--,--
120,1200,1920,49,.75,1.5,0.75,False,,male,,fr,684,90,2,1,1,0.0,--,--,--,--,--
120,1200,1920,49,.75,1.5,0.75,False,,male,,fr,685,90,1,0,1,0.0,--,--,--,--,--
120,1200,1920,49,.75,1.5,0.75,False,,male,,fr,686,90,2,1,1,0.0,--,--,--,--,--
120,1200,1920,49,.75,1.5,0.75,False,,male,,fr,687,90,1,1,1,0.0,--,--,--,--,--
120,1200,1920,49,.75,1.5,0.75,False,,male,,fr,688,90,1,1,1,0.0,--,--,--,--,--
120,1200,1920,49,.75,1.5,0.75,False,,male,,fr,689,90,1,0,1,0.0,--,--,--,--,--
120,1200,1920,49,.75,1.5,0.75,False,,male,,fr,690,90,2,0,1,0.0,--,--,--,--,--
120,1200,1920,49,.75,1.5,0.75,False,,male,,fr,691,90,1,1,1,0.0,--,--,--,--,--
120,1200,1920,49,.75,1.5,0.75,False,,male,,fr,692,90,2,1,1,0.0,--,--,--,--,--
120,1200,1920,49,.75,1.5,0.75,False,,male,,fr,693,90,2,1,1,0.0,--,--,--,--,--
120,1200,1920,49,.75,1.5,0.75,False,,male,,fr,694,90,1,1,1,0.0,--,--,--,--,--
120,1200,1920,49,.75,1.5,0.75,False,,male,,fr,695,90,1,0,1,0.0,--,--,--,--,--
120,1200,1920,49,.75,1.5,0.75,False,,male,,fr,696,90,1,0,1,0.0,--,--,--,--,--
120,1200,1920,49,.75,1.5,0.75,False,,male,,fr,697,90,2,0,1,0.0,--,--,--,--,--
120,1200,1920,49,.75,1.5,0.75,False,,male,,fr,698,90,2,0,1,0.0,--,--,--,--,--
120,1200,1920,49,.75,1.5,0.75,False,,male,,fr,699,90,2,1,1,0.0,--,--,--,--,--
120,1200,1920,49,.75,1.5,0.75,False,,male,,fr,700,90,2,0,1,0.0,--,--,--,--,--
120,1200,1920,49,.75,1.5,0.75,False,,male,,fr,701,90,2,1,1,0.0,--,--,--,--,--
120,1200,1920,49,.75,1.5,0.75,False,,male,,fr,702,90,1,1,1,0.0,--,--,--,--,--
120,1200,1920,49,.75,1.5,0.75,False,,male,,fr,703,90,2,0,1,0.0,--,--,--,--,--
120,1200,1920,49,.75,1.5,0.75,False,,male,,fr,704,90,1,0,1,0.0,--,--,--,--,--
120,1200,1920,49,.75,1.5,0.75,False,,male,,fr,705,90,2,0,1,0.0,--,--,--,--,--
120,1200,1920,49,.75,1.5,0.75,False,,male,,fr,706,90,2,0,1,0.0,--,--,--,--,--
120,1200,1920,49,.75,1.5,0.75,False,,male,,fr,707,90,1,1,1,0.0,--,--,--,--,--
120,1200,1920,49,.75,1.5,0.75,False,,male,,fr,708,90,1,1,1,0.0,--,--,--,--,--
120,1200,1920,49,.75,1.5,0.75,False,,male,,fr,709,90,2,0,1,0.0,--,--,--,--,--
120,1200,1920,49,.75,1.5,0.75,False,,male,,fr,710,90,2,0,1,0.0,--,--,--,--,--
120,1200,1920,49,.75,1.5,0.75,False,,male,,fr,711,90,1,0,1,0.0,--,--,--,--,--
120,1200,1920,49,.75,1.5,0.75,False,,male,,fr,712,90,2,1,1,0.0,--,--,--,--,--
120,1200,1920,49,.75,1.5,0.75,False,,male,,fr,713,90,2,1,1,0.0,--,--,--,--,--
120,1200,1920,49,.75,1.5,0.75,False,,male,,fr,714,90,2,1,1,0.0,--,--,--,--,--
120,1200,1920,49,.75,1.5,0.75,False,,male,,fr,715,90,2,0,1,0.0,--,--,--,--,--
120,1200,1920,49,.75,1.5,0.75,False,,male,,fr,716,90,2,1,1,0.0,--,--,--,--,--
120,1200,1920,49,.75,1.5,0.75,False,,male,,fr,717,90,2,1,1,0.0,--,--,--,--,--
120,1200,1920,49,.75,1.5,0.75,False,,male,,fr,718,90,1,0,1,0.0,--,--,--,--,--
120,1200,1920,49,.75,1.5,0.75,False,,male,,fr,719,90,2,1,1,0.0,--,--,--,--,--
120,1200,1920,49,.75,1.5,0.75,False,,male,,fr,720,90,2,0,1,0.0,--,--,--,--,--
