refreshrate(hz),screenresolutionvert(pixels),screenresolutionhori(pixels),screenwidth(cm),color_text,eccentricity,Stim_size,left-handed,age,gender,participant,language,TrialNumber,bgori,staircase,targetloc,cond,ran,order,resp,rt,acc,contrast
120,1200,1920,49,.75,1.5,0.75,False,,male,test2,fr,1,361,2,0,3,1.0,0.0,1.0,0.7005353,0.0,0.011410550312757525
120,1200,1920,49,.75,1.5,0.75,False,,male,test2,fr,2,361,2,0,3,1.0,1.0,0.0,0.377659,1.0,0.03193728503137525
120,1200,1920,49,.75,1.5,0.75,False,,male,test2,fr,3,361,2,1,3,1.0,2.0,1.0,0.2726901,1.0,0.025185242205390552
120,1200,1920,49,.75,1.5,0.75,False,,male,test2,fr,4,361,2,0,3,1.0,3.0,0.0,0.276342,1.0,0.020662660803773863
120,1200,1920,49,.75,1.5,0.75,False,,male,test2,fr,5,361,2,0,3,1.0,4.0,0.0,0.3951758,1.0,0.017636741035637882
120,1200,1920,49,.75,1.5,0.75,False,,male,test2,fr,6,361,1,1,3,1.0,5.0,0.0,0.5907197,0.0,0.011410550312757525
120,1200,1920,49,.75,1.5,0.75,False,,male,test2,fr,7,361,1,1,3,1.0,6.0,1.0,0.3471801,1.0,0.03193728503137525
120,1200,1920,49,.75,1.5,0.75,False,,male,test2,fr,8,361,2,0,3,1.0,7.0,0.0,0.3907367,1.0,0.015053948632856707
120,1200,1920,49,.75,1.5,0.75,False,,male,test2,fr,9,361,1,0,3,1.0,8.0,0.0,0.4359788,1.0,0.025185242205390552
120,1200,1920,49,.75,1.5,0.75,False,,male,test2,fr,10,361,1,0,3,1.0,9.0,0.0,0.7290318,1.0,0.020662660803773863
120,1200,1920,49,.75,1.5,0.75,False,,male,test2,fr,11,361,2,1,3,1.0,10.0,1.0,1.3725209,1.0,0.009934240517826544
120,1200,1920,49,.75,1.5,0.75,False,,male,test2,fr,12,361,2,1,3,1.0,11.0,0.0,0.6102587,0.0,0.00882183111215549
120,1200,1920,49,.75,1.5,0.75,False,,male,test2,fr,13,361,1,1,3,1.0,12.0,1.0,0.3422496,1.0,0.017636741035637882
120,1200,1920,49,.75,1.5,0.75,False,,male,test2,fr,14,361,1,1,3,1.0,13.0,1.0,0.2687839,1.0,0.015053948632856707
120,1200,1920,49,.75,1.5,0.75,False,,male,test2,fr,15,361,1,0,3,1.0,14.0,0.0,0.3945468,1.0,0.009934240517826544
120,1200,1920,49,.75,1.5,0.75,False,,male,test2,fr,16,361,1,0,3,1.0,15.0,0.0,0.448446,1.0,0.00882183111215549
120,1200,1920,49,.75,1.5,0.75,False,,male,test2,fr,17,361,2,1,3,1.0,16.0,1.0,0.2998897,1.0,0.015974909092232634
120,1200,1920,49,.75,1.5,0.75,False,,male,test2,fr,18,361,1,0,3,1.0,17.0,0.0,0.4966535,1.0,0.007237671270027853
120,1200,1920,49,.75,1.5,0.75,False,,male,test2,fr,19,361,2,0,3,1.0,18.0,0.0,0.5230337,1.0,0.014758915330012263
120,1200,1920,49,.75,1.5,0.75,False,,male,test2,fr,20,361,2,0,3,0.0,--,--,--,--,--
120,1200,1920,49,.75,1.5,0.75,False,,male,test2,fr,21,361,1,0,3,0.0,--,--,--,--,--
120,1200,1920,49,.75,1.5,0.75,False,,male,test2,fr,22,361,1,1,3,0.0,--,--,--,--,--
120,1200,1920,49,.75,1.5,0.75,False,,male,test2,fr,23,361,1,0,3,0.0,--,--,--,--,--
120,1200,1920,49,.75,1.5,0.75,False,,male,test2,fr,24,361,2,0,3,0.0,--,--,--,--,--
120,1200,1920,49,.75,1.5,0.75,False,,male,test2,fr,25,361,2,1,3,0.0,--,--,--,--,--
120,1200,1920,49,.75,1.5,0.75,False,,male,test2,fr,26,361,2,0,3,0.0,--,--,--,--,--
120,1200,1920,49,.75,1.5,0.75,False,,male,test2,fr,27,361,1,1,3,0.0,--,--,--,--,--
120,1200,1920,49,.75,1.5,0.75,False,,male,test2,fr,28,361,1,1,3,0.0,--,--,--,--,--
120,1200,1920,49,.75,1.5,0.75,False,,male,test2,fr,29,361,2,1,3,0.0,--,--,--,--,--
120,1200,1920,49,.75,1.5,0.75,False,,male,test2,fr,30,361,2,0,3,0.0,--,--,--,--,--
120,1200,1920,49,.75,1.5,0.75,False,,male,test2,fr,31,361,1,0,3,0.0,--,--,--,--,--
120,1200,1920,49,.75,1.5,0.75,False,,male,test2,fr,32,361,1,1,3,0.0,--,--,--,--,--
120,1200,1920,49,.75,1.5,0.75,False,,male,test2,fr,33,361,1,1,3,0.0,--,--,--,--,--
120,1200,1920,49,.75,1.5,0.75,False,,male,test2,fr,34,361,1,0,3,0.0,--,--,--,--,--
120,1200,1920,49,.75,1.5,0.75,False,,male,test2,fr,35,361,1,1,3,0.0,--,--,--,--,--
120,1200,1920,49,.75,1.5,0.75,False,,male,test2,fr,36,361,2,1,3,0.0,--,--,--,--,--
120,1200,1920,49,.75,1.5,0.75,False,,male,test2,fr,37,361,2,0,3,0.0,--,--,--,--,--
120,1200,1920,49,.75,1.5,0.75,False,,male,test2,fr,38,361,1,0,3,0.0,--,--,--,--,--
120,1200,1920,49,.75,1.5,0.75,False,,male,test2,fr,39,361,2,0,3,0.0,--,--,--,--,--
120,1200,1920,49,.75,1.5,0.75,False,,male,test2,fr,40,361,1,0,3,0.0,--,--,--,--,--
120,1200,1920,49,.75,1.5,0.75,False,,male,test2,fr,41,361,2,1,3,0.0,--,--,--,--,--
120,1200,1920,49,.75,1.5,0.75,False,,male,test2,fr,42,361,2,1,3,0.0,--,--,--,--,--
120,1200,1920,49,.75,1.5,0.75,False,,male,test2,fr,43,361,2,1,3,0.0,--,--,--,--,--
120,1200,1920,49,.75,1.5,0.75,False,,male,test2,fr,44,361,1,0,3,0.0,--,--,--,--,--
120,1200,1920,49,.75,1.5,0.75,False,,male,test2,fr,45,361,1,1,3,0.0,--,--,--,--,--
120,1200,1920,49,.75,1.5,0.75,False,,male,test2,fr,46,361,1,1,3,0.0,--,--,--,--,--
120,1200,1920,49,.75,1.5,0.75,False,,male,test2,fr,47,361,1,1,3,0.0,--,--,--,--,--
120,1200,1920,49,.75,1.5,0.75,False,,male,test2,fr,48,361,1,0,3,0.0,--,--,--,--,--
120,1200,1920,49,.75,1.5,0.75,False,,male,test2,fr,49,361,1,0,3,0.0,--,--,--,--,--
120,1200,1920,49,.75,1.5,0.75,False,,male,test2,fr,50,361,1,1,3,0.0,--,--,--,--,--
120,1200,1920,49,.75,1.5,0.75,False,,male,test2,fr,51,361,2,0,3,0.0,--,--,--,--,--
120,1200,1920,49,.75,1.5,0.75,False,,male,test2,fr,52,361,2,1,3,0.0,--,--,--,--,--
120,1200,1920,49,.75,1.5,0.75,False,,male,test2,fr,53,361,1,1,3,0.0,--,--,--,--,--
120,1200,1920,49,.75,1.5,0.75,False,,male,test2,fr,54,361,1,1,3,0.0,--,--,--,--,--
120,1200,1920,49,.75,1.5,0.75,False,,male,test2,fr,55,361,1,0,3,0.0,--,--,--,--,--
120,1200,1920,49,.75,1.5,0.75,False,,male,test2,fr,56,361,2,0,3,0.0,--,--,--,--,--
120,1200,1920,49,.75,1.5,0.75,False,,male,test2,fr,57,361,2,1,3,0.0,--,--,--,--,--
120,1200,1920,49,.75,1.5,0.75,False,,male,test2,fr,58,361,1,1,3,0.0,--,--,--,--,--
120,1200,1920,49,.75,1.5,0.75,False,,male,test2,fr,59,361,2,1,3,0.0,--,--,--,--,--
120,1200,1920,49,.75,1.5,0.75,False,,male,test2,fr,60,361,2,1,3,0.0,--,--,--,--,--
120,1200,1920,49,.75,1.5,0.75,False,,male,test2,fr,61,361,2,0,3,0.0,--,--,--,--,--
120,1200,1920,49,.75,1.5,0.75,False,,male,test2,fr,62,361,1,0,3,0.0,--,--,--,--,--
120,1200,1920,49,.75,1.5,0.75,False,,male,test2,fr,63,361,2,0,3,0.0,--,--,--,--,--
120,1200,1920,49,.75,1.5,0.75,False,,male,test2,fr,64,361,2,1,3,0.0,--,--,--,--,--
120,1200,1920,49,.75,1.5,0.75,False,,male,test2,fr,65,361,1,0,3,0.0,--,--,--,--,--
120,1200,1920,49,.75,1.5,0.75,False,,male,test2,fr,66,361,2,1,3,0.0,--,--,--,--,--
120,1200,1920,49,.75,1.5,0.75,False,,male,test2,fr,67,361,2,0,3,0.0,--,--,--,--,--
120,1200,1920,49,.75,1.5,0.75,False,,male,test2,fr,68,361,2,1,3,0.0,--,--,--,--,--
120,1200,1920,49,.75,1.5,0.75,False,,male,test2,fr,69,361,1,1,3,0.0,--,--,--,--,--
120,1200,1920,49,.75,1.5,0.75,False,,male,test2,fr,70,361,1,0,3,0.0,--,--,--,--,--
120,1200,1920,49,.75,1.5,0.75,False,,male,test2,fr,71,361,2,1,3,0.0,--,--,--,--,--
120,1200,1920,49,.75,1.5,0.75,False,,male,test2,fr,72,361,2,0,3,0.0,--,--,--,--,--
120,1200,1920,49,.75,1.5,0.75,False,,male,test2,fr,73,361,2,0,3,0.0,--,--,--,--,--
120,1200,1920,49,.75,1.5,0.75,False,,male,test2,fr,74,361,2,1,3,0.0,--,--,--,--,--
120,1200,1920,49,.75,1.5,0.75,False,,male,test2,fr,75,361,1,0,3,0.0,--,--,--,--,--
120,1200,1920,49,.75,1.5,0.75,False,,male,test2,fr,76,361,2,0,3,0.0,--,--,--,--,--
120,1200,1920,49,.75,1.5,0.75,False,,male,test2,fr,77,361,2,1,3,0.0,--,--,--,--,--
120,1200,1920,49,.75,1.5,0.75,False,,male,test2,fr,78,361,1,0,3,0.0,--,--,--,--,--
120,1200,1920,49,.75,1.5,0.75,False,,male,test2,fr,79,361,1,1,3,0.0,--,--,--,--,--
120,1200,1920,49,.75,1.5,0.75,False,,male,test2,fr,80,361,1,1,3,0.0,--,--,--,--,--
120,1200,1920,49,.75,1.5,0.75,False,,male,test2,fr,81,90,2,0,1,0.0,--,--,--,--,--
120,1200,1920,49,.75,1.5,0.75,False,,male,test2,fr,82,90,2,0,1,0.0,--,--,--,--,--
120,1200,1920,49,.75,1.5,0.75,False,,male,test2,fr,83,90,1,1,1,0.0,--,--,--,--,--
120,1200,1920,49,.75,1.5,0.75,False,,male,test2,fr,84,90,2,0,1,0.0,--,--,--,--,--
120,1200,1920,49,.75,1.5,0.75,False,,male,test2,fr,85,90,2,1,1,0.0,--,--,--,--,--
120,1200,1920,49,.75,1.5,0.75,False,,male,test2,fr,86,90,1,1,1,0.0,--,--,--,--,--
120,1200,1920,49,.75,1.5,0.75,False,,male,test2,fr,87,90,2,0,1,0.0,--,--,--,--,--
120,1200,1920,49,.75,1.5,0.75,False,,male,test2,fr,88,90,2,0,1,0.0,--,--,--,--,--
120,1200,1920,49,.75,1.5,0.75,False,,male,test2,fr,89,90,1,1,1,0.0,--,--,--,--,--
120,1200,1920,49,.75,1.5,0.75,False,,male,test2,fr,90,90,2,0,1,0.0,--,--,--,--,--
120,1200,1920,49,.75,1.5,0.75,False,,male,test2,fr,91,90,1,0,1,0.0,--,--,--,--,--
120,1200,1920,49,.75,1.5,0.75,False,,male,test2,fr,92,90,1,0,1,0.0,--,--,--,--,--
120,1200,1920,49,.75,1.5,0.75,False,,male,test2,fr,93,90,1,0,1,0.0,--,--,--,--,--
120,1200,1920,49,.75,1.5,0.75,False,,male,test2,fr,94,90,1,1,1,0.0,--,--,--,--,--
120,1200,1920,49,.75,1.5,0.75,False,,male,test2,fr,95,90,2,0,1,0.0,--,--,--,--,--
120,1200,1920,49,.75,1.5,0.75,False,,male,test2,fr,96,90,2,1,1,0.0,--,--,--,--,--
120,1200,1920,49,.75,1.5,0.75,False,,male,test2,fr,97,90,2,1,1,0.0,--,--,--,--,--
120,1200,1920,49,.75,1.5,0.75,False,,male,test2,fr,98,90,2,0,1,0.0,--,--,--,--,--
120,1200,1920,49,.75,1.5,0.75,False,,male,test2,fr,99,90,1,0,1,0.0,--,--,--,--,--
120,1200,1920,49,.75,1.5,0.75,False,,male,test2,fr,100,90,1,0,1,0.0,--,--,--,--,--
120,1200,1920,49,.75,1.5,0.75,False,,male,test2,fr,101,90,1,1,1,0.0,--,--,--,--,--
120,1200,1920,49,.75,1.5,0.75,False,,male,test2,fr,102,90,1,0,1,0.0,--,--,--,--,--
120,1200,1920,49,.75,1.5,0.75,False,,male,test2,fr,103,90,2,0,1,0.0,--,--,--,--,--
120,1200,1920,49,.75,1.5,0.75,False,,male,test2,fr,104,90,1,1,1,0.0,--,--,--,--,--
120,1200,1920,49,.75,1.5,0.75,False,,male,test2,fr,105,90,1,0,1,0.0,--,--,--,--,--
120,1200,1920,49,.75,1.5,0.75,False,,male,test2,fr,106,90,2,1,1,0.0,--,--,--,--,--
120,1200,1920,49,.75,1.5,0.75,False,,male,test2,fr,107,90,2,1,1,0.0,--,--,--,--,--
120,1200,1920,49,.75,1.5,0.75,False,,male,test2,fr,108,90,1,1,1,0.0,--,--,--,--,--
120,1200,1920,49,.75,1.5,0.75,False,,male,test2,fr,109,90,1,0,1,0.0,--,--,--,--,--
120,1200,1920,49,.75,1.5,0.75,False,,male,test2,fr,110,90,2,1,1,0.0,--,--,--,--,--
120,1200,1920,49,.75,1.5,0.75,False,,male,test2,fr,111,90,1,1,1,0.0,--,--,--,--,--
120,1200,1920,49,.75,1.5,0.75,False,,male,test2,fr,112,90,1,0,1,0.0,--,--,--,--,--
120,1200,1920,49,.75,1.5,0.75,False,,male,test2,fr,113,90,1,0,1,0.0,--,--,--,--,--
120,1200,1920,49,.75,1.5,0.75,False,,male,test2,fr,114,90,2,0,1,0.0,--,--,--,--,--
120,1200,1920,49,.75,1.5,0.75,False,,male,test2,fr,115,90,2,0,1,0.0,--,--,--,--,--
120,1200,1920,49,.75,1.5,0.75,False,,male,test2,fr,116,90,1,0,1,0.0,--,--,--,--,--
120,1200,1920,49,.75,1.5,0.75,False,,male,test2,fr,117,90,1,1,1,0.0,--,--,--,--,--
120,1200,1920,49,.75,1.5,0.75,False,,male,test2,fr,118,90,1,1,1,0.0,--,--,--,--,--
120,1200,1920,49,.75,1.5,0.75,False,,male,test2,fr,119,90,1,1,1,0.0,--,--,--,--,--
120,1200,1920,49,.75,1.5,0.75,False,,male,test2,fr,120,90,2,1,1,0.0,--,--,--,--,--
120,1200,1920,49,.75,1.5,0.75,False,,male,test2,fr,121,90,2,0,1,0.0,--,--,--,--,--
120,1200,1920,49,.75,1.5,0.75,False,,male,test2,fr,122,90,1,0,1,0.0,--,--,--,--,--
120,1200,1920,49,.75,1.5,0.75,False,,male,test2,fr,123,90,2,0,1,0.0,--,--,--,--,--
120,1200,1920,49,.75,1.5,0.75,False,,male,test2,fr,124,90,2,0,1,0.0,--,--,--,--,--
120,1200,1920,49,.75,1.5,0.75,False,,male,test2,fr,125,90,2,0,1,0.0,--,--,--,--,--
120,1200,1920,49,.75,1.5,0.75,False,,male,test2,fr,126,90,2,1,1,0.0,--,--,--,--,--
120,1200,1920,49,.75,1.5,0.75,False,,male,test2,fr,127,90,2,0,1,0.0,--,--,--,--,--
120,1200,1920,49,.75,1.5,0.75,False,,male,test2,fr,128,90,1,1,1,0.0,--,--,--,--,--
120,1200,1920,49,.75,1.5,0.75,False,,male,test2,fr,129,90,1,0,1,0.0,--,--,--,--,--
120,1200,1920,49,.75,1.5,0.75,False,,male,test2,fr,130,90,2,1,1,0.0,--,--,--,--,--
120,1200,1920,49,.75,1.5,0.75,False,,male,test2,fr,131,90,2,1,1,0.0,--,--,--,--,--
120,1200,1920,49,.75,1.5,0.75,False,,male,test2,fr,132,90,2,1,1,0.0,--,--,--,--,--
120,1200,1920,49,.75,1.5,0.75,False,,male,test2,fr,133,90,1,0,1,0.0,--,--,--,--,--
120,1200,1920,49,.75,1.5,0.75,False,,male,test2,fr,134,90,1,1,1,0.0,--,--,--,--,--
120,1200,1920,49,.75,1.5,0.75,False,,male,test2,fr,135,90,1,1,1,0.0,--,--,--,--,--
120,1200,1920,49,.75,1.5,0.75,False,,male,test2,fr,136,90,1,0,1,0.0,--,--,--,--,--
120,1200,1920,49,.75,1.5,0.75,False,,male,test2,fr,137,90,2,0,1,0.0,--,--,--,--,--
120,1200,1920,49,.75,1.5,0.75,False,,male,test2,fr,138,90,2,1,1,0.0,--,--,--,--,--
120,1200,1920,49,.75,1.5,0.75,False,,male,test2,fr,139,90,1,1,1,0.0,--,--,--,--,--
120,1200,1920,49,.75,1.5,0.75,False,,male,test2,fr,140,90,1,1,1,0.0,--,--,--,--,--
120,1200,1920,49,.75,1.5,0.75,False,,male,test2,fr,141,90,2,1,1,0.0,--,--,--,--,--
120,1200,1920,49,.75,1.5,0.75,False,,male,test2,fr,142,90,1,1,1,0.0,--,--,--,--,--
120,1200,1920,49,.75,1.5,0.75,False,,male,test2,fr,143,90,2,1,1,0.0,--,--,--,--,--
120,1200,1920,49,.75,1.5,0.75,False,,male,test2,fr,144,90,2,1,1,0.0,--,--,--,--,--
120,1200,1920,49,.75,1.5,0.75,False,,male,test2,fr,145,90,1,1,1,0.0,--,--,--,--,--
120,1200,1920,49,.75,1.5,0.75,False,,male,test2,fr,146,90,2,1,1,0.0,--,--,--,--,--
120,1200,1920,49,.75,1.5,0.75,False,,male,test2,fr,147,90,1,0,1,0.0,--,--,--,--,--
120,1200,1920,49,.75,1.5,0.75,False,,male,test2,fr,148,90,2,1,1,0.0,--,--,--,--,--
120,1200,1920,49,.75,1.5,0.75,False,,male,test2,fr,149,90,1,1,1,0.0,--,--,--,--,--
120,1200,1920,49,.75,1.5,0.75,False,,male,test2,fr,150,90,1,0,1,0.0,--,--,--,--,--
120,1200,1920,49,.75,1.5,0.75,False,,male,test2,fr,151,90,2,1,1,0.0,--,--,--,--,--
120,1200,1920,49,.75,1.5,0.75,False,,male,test2,fr,152,90,1,0,1,0.0,--,--,--,--,--
120,1200,1920,49,.75,1.5,0.75,False,,male,test2,fr,153,90,2,0,1,0.0,--,--,--,--,--
120,1200,1920,49,.75,1.5,0.75,False,,male,test2,fr,154,90,2,1,1,0.0,--,--,--,--,--
120,1200,1920,49,.75,1.5,0.75,False,,male,test2,fr,155,90,2,1,1,0.0,--,--,--,--,--
120,1200,1920,49,.75,1.5,0.75,False,,male,test2,fr,156,90,1,0,1,0.0,--,--,--,--,--
120,1200,1920,49,.75,1.5,0.75,False,,male,test2,fr,157,90,2,0,1,0.0,--,--,--,--,--
120,1200,1920,49,.75,1.5,0.75,False,,male,test2,fr,158,90,1,1,1,0.0,--,--,--,--,--
120,1200,1920,49,.75,1.5,0.75,False,,male,test2,fr,159,90,2,0,1,0.0,--,--,--,--,--
120,1200,1920,49,.75,1.5,0.75,False,,male,test2,fr,160,90,1,0,1,0.0,--,--,--,--,--
120,1200,1920,49,.75,1.5,0.75,False,,male,test2,fr,161,0,1,0,2,0.0,--,--,--,--,--
120,1200,1920,49,.75,1.5,0.75,False,,male,test2,fr,162,0,1,0,2,0.0,--,--,--,--,--
120,1200,1920,49,.75,1.5,0.75,False,,male,test2,fr,163,0,1,0,2,0.0,--,--,--,--,--
120,1200,1920,49,.75,1.5,0.75,False,,male,test2,fr,164,0,2,0,2,0.0,--,--,--,--,--
120,1200,1920,49,.75,1.5,0.75,False,,male,test2,fr,165,0,1,0,2,0.0,--,--,--,--,--
120,1200,1920,49,.75,1.5,0.75,False,,male,test2,fr,166,0,1,1,2,0.0,--,--,--,--,--
120,1200,1920,49,.75,1.5,0.75,False,,male,test2,fr,167,0,2,0,2,0.0,--,--,--,--,--
120,1200,1920,49,.75,1.5,0.75,False,,male,test2,fr,168,0,1,1,2,0.0,--,--,--,--,--
120,1200,1920,49,.75,1.5,0.75,False,,male,test2,fr,169,0,1,0,2,0.0,--,--,--,--,--
120,1200,1920,49,.75,1.5,0.75,False,,male,test2,fr,170,0,2,0,2,0.0,--,--,--,--,--
120,1200,1920,49,.75,1.5,0.75,False,,male,test2,fr,171,0,1,1,2,0.0,--,--,--,--,--
120,1200,1920,49,.75,1.5,0.75,False,,male,test2,fr,172,0,1,1,2,0.0,--,--,--,--,--
120,1200,1920,49,.75,1.5,0.75,False,,male,test2,fr,173,0,2,0,2,0.0,--,--,--,--,--
120,1200,1920,49,.75,1.5,0.75,False,,male,test2,fr,174,0,2,0,2,0.0,--,--,--,--,--
120,1200,1920,49,.75,1.5,0.75,False,,male,test2,fr,175,0,2,1,2,0.0,--,--,--,--,--
120,1200,1920,49,.75,1.5,0.75,False,,male,test2,fr,176,0,1,0,2,0.0,--,--,--,--,--
120,1200,1920,49,.75,1.5,0.75,False,,male,test2,fr,177,0,1,0,2,0.0,--,--,--,--,--
120,1200,1920,49,.75,1.5,0.75,False,,male,test2,fr,178,0,1,0,2,0.0,--,--,--,--,--
120,1200,1920,49,.75,1.5,0.75,False,,male,test2,fr,179,0,2,1,2,0.0,--,--,--,--,--
120,1200,1920,49,.75,1.5,0.75,False,,male,test2,fr,180,0,2,0,2,0.0,--,--,--,--,--
120,1200,1920,49,.75,1.5,0.75,False,,male,test2,fr,181,0,1,0,2,0.0,--,--,--,--,--
120,1200,1920,49,.75,1.5,0.75,False,,male,test2,fr,182,0,1,1,2,0.0,--,--,--,--,--
120,1200,1920,49,.75,1.5,0.75,False,,male,test2,fr,183,0,2,1,2,0.0,--,--,--,--,--
120,1200,1920,49,.75,1.5,0.75,False,,male,test2,fr,184,0,2,1,2,0.0,--,--,--,--,--
120,1200,1920,49,.75,1.5,0.75,False,,male,test2,fr,185,0,1,1,2,0.0,--,--,--,--,--
120,1200,1920,49,.75,1.5,0.75,False,,male,test2,fr,186,0,2,0,2,0.0,--,--,--,--,--
120,1200,1920,49,.75,1.5,0.75,False,,male,test2,fr,187,0,1,0,2,0.0,--,--,--,--,--
120,1200,1920,49,.75,1.5,0.75,False,,male,test2,fr,188,0,2,0,2,0.0,--,--,--,--,--
120,1200,1920,49,.75,1.5,0.75,False,,male,test2,fr,189,0,2,1,2,0.0,--,--,--,--,--
120,1200,1920,49,.75,1.5,0.75,False,,male,test2,fr,190,0,2,1,2,0.0,--,--,--,--,--
120,1200,1920,49,.75,1.5,0.75,False,,male,test2,fr,191,0,2,0,2,0.0,--,--,--,--,--
120,1200,1920,49,.75,1.5,0.75,False,,male,test2,fr,192,0,1,1,2,0.0,--,--,--,--,--
120,1200,1920,49,.75,1.5,0.75,False,,male,test2,fr,193,0,1,1,2,0.0,--,--,--,--,--
120,1200,1920,49,.75,1.5,0.75,False,,male,test2,fr,194,0,2,1,2,0.0,--,--,--,--,--
120,1200,1920,49,.75,1.5,0.75,False,,male,test2,fr,195,0,1,0,2,0.0,--,--,--,--,--
120,1200,1920,49,.75,1.5,0.75,False,,male,test2,fr,196,0,1,1,2,0.0,--,--,--,--,--
120,1200,1920,49,.75,1.5,0.75,False,,male,test2,fr,197,0,1,0,2,0.0,--,--,--,--,--
120,1200,1920,49,.75,1.5,0.75,False,,male,test2,fr,198,0,2,1,2,0.0,--,--,--,--,--
120,1200,1920,49,.75,1.5,0.75,False,,male,test2,fr,199,0,2,1,2,0.0,--,--,--,--,--
120,1200,1920,49,.75,1.5,0.75,False,,male,test2,fr,200,0,2,1,2,0.0,--,--,--,--,--
120,1200,1920,49,.75,1.5,0.75,False,,male,test2,fr,201,0,1,1,2,0.0,--,--,--,--,--
120,1200,1920,49,.75,1.5,0.75,False,,male,test2,fr,202,0,2,1,2,0.0,--,--,--,--,--
120,1200,1920,49,.75,1.5,0.75,False,,male,test2,fr,203,0,1,0,2,0.0,--,--,--,--,--
120,1200,1920,49,.75,1.5,0.75,False,,male,test2,fr,204,0,2,1,2,0.0,--,--,--,--,--
120,1200,1920,49,.75,1.5,0.75,False,,male,test2,fr,205,0,2,0,2,0.0,--,--,--,--,--
120,1200,1920,49,.75,1.5,0.75,False,,male,test2,fr,206,0,2,1,2,0.0,--,--,--,--,--
120,1200,1920,49,.75,1.5,0.75,False,,male,test2,fr,207,0,2,1,2,0.0,--,--,--,--,--
120,1200,1920,49,.75,1.5,0.75,False,,male,test2,fr,208,0,1,0,2,0.0,--,--,--,--,--
120,1200,1920,49,.75,1.5,0.75,False,,male,test2,fr,209,0,2,0,2,0.0,--,--,--,--,--
120,1200,1920,49,.75,1.5,0.75,False,,male,test2,fr,210,0,2,0,2,0.0,--,--,--,--,--
120,1200,1920,49,.75,1.5,0.75,False,,male,test2,fr,211,0,2,1,2,0.0,--,--,--,--,--
120,1200,1920,49,.75,1.5,0.75,False,,male,test2,fr,212,0,2,1,2,0.0,--,--,--,--,--
120,1200,1920,49,.75,1.5,0.75,False,,male,test2,fr,213,0,1,1,2,0.0,--,--,--,--,--
120,1200,1920,49,.75,1.5,0.75,False,,male,test2,fr,214,0,1,1,2,0.0,--,--,--,--,--
120,1200,1920,49,.75,1.5,0.75,False,,male,test2,fr,215,0,1,1,2,0.0,--,--,--,--,--
120,1200,1920,49,.75,1.5,0.75,False,,male,test2,fr,216,0,2,0,2,0.0,--,--,--,--,--
120,1200,1920,49,.75,1.5,0.75,False,,male,test2,fr,217,0,1,0,2,0.0,--,--,--,--,--
120,1200,1920,49,.75,1.5,0.75,False,,male,test2,fr,218,0,1,0,2,0.0,--,--,--,--,--
120,1200,1920,49,.75,1.5,0.75,False,,male,test2,fr,219,0,1,0,2,0.0,--,--,--,--,--
120,1200,1920,49,.75,1.5,0.75,False,,male,test2,fr,220,0,2,0,2,0.0,--,--,--,--,--
120,1200,1920,49,.75,1.5,0.75,False,,male,test2,fr,221,0,1,1,2,0.0,--,--,--,--,--
120,1200,1920,49,.75,1.5,0.75,False,,male,test2,fr,222,0,1,1,2,0.0,--,--,--,--,--
120,1200,1920,49,.75,1.5,0.75,False,,male,test2,fr,223,0,2,1,2,0.0,--,--,--,--,--
120,1200,1920,49,.75,1.5,0.75,False,,male,test2,fr,224,0,2,1,2,0.0,--,--,--,--,--
120,1200,1920,49,.75,1.5,0.75,False,,male,test2,fr,225,0,1,1,2,0.0,--,--,--,--,--
120,1200,1920,49,.75,1.5,0.75,False,,male,test2,fr,226,0,2,0,2,0.0,--,--,--,--,--
120,1200,1920,49,.75,1.5,0.75,False,,male,test2,fr,227,0,1,1,2,0.0,--,--,--,--,--
120,1200,1920,49,.75,1.5,0.75,False,,male,test2,fr,228,0,1,1,2,0.0,--,--,--,--,--
120,1200,1920,49,.75,1.5,0.75,False,,male,test2,fr,229,0,1,1,2,0.0,--,--,--,--,--
120,1200,1920,49,.75,1.5,0.75,False,,male,test2,fr,230,0,1,0,2,0.0,--,--,--,--,--
120,1200,1920,49,.75,1.5,0.75,False,,male,test2,fr,231,0,2,0,2,0.0,--,--,--,--,--
120,1200,1920,49,.75,1.5,0.75,False,,male,test2,fr,232,0,1,0,2,0.0,--,--,--,--,--
120,1200,1920,49,.75,1.5,0.75,False,,male,test2,fr,233,0,2,1,2,0.0,--,--,--,--,--
120,1200,1920,49,.75,1.5,0.75,False,,male,test2,fr,234,0,2,0,2,0.0,--,--,--,--,--
120,1200,1920,49,.75,1.5,0.75,False,,male,test2,fr,235,0,1,0,2,0.0,--,--,--,--,--
120,1200,1920,49,.75,1.5,0.75,False,,male,test2,fr,236,0,1,1,2,0.0,--,--,--,--,--
120,1200,1920,49,.75,1.5,0.75,False,,male,test2,fr,237,0,2,0,2,0.0,--,--,--,--,--
120,1200,1920,49,.75,1.5,0.75,False,,male,test2,fr,238,0,2,1,2,0.0,--,--,--,--,--
120,1200,1920,49,.75,1.5,0.75,False,,male,test2,fr,239,0,2,0,2,0.0,--,--,--,--,--
120,1200,1920,49,.75,1.5,0.75,False,,male,test2,fr,240,0,2,0,2,0.0,--,--,--,--,--
120,1200,1920,49,.75,1.5,0.75,False,,male,test2,fr,241,90,2,0,1,0.0,--,--,--,--,--
120,1200,1920,49,.75,1.5,0.75,False,,male,test2,fr,242,90,2,0,1,0.0,--,--,--,--,--
120,1200,1920,49,.75,1.5,0.75,False,,male,test2,fr,243,90,1,1,1,0.0,--,--,--,--,--
120,1200,1920,49,.75,1.5,0.75,False,,male,test2,fr,244,90,2,0,1,0.0,--,--,--,--,--
120,1200,1920,49,.75,1.5,0.75,False,,male,test2,fr,245,90,2,1,1,0.0,--,--,--,--,--
120,1200,1920,49,.75,1.5,0.75,False,,male,test2,fr,246,90,1,1,1,0.0,--,--,--,--,--
120,1200,1920,49,.75,1.5,0.75,False,,male,test2,fr,247,90,2,0,1,0.0,--,--,--,--,--
120,1200,1920,49,.75,1.5,0.75,False,,male,test2,fr,248,90,2,0,1,0.0,--,--,--,--,--
120,1200,1920,49,.75,1.5,0.75,False,,male,test2,fr,249,90,1,1,1,0.0,--,--,--,--,--
120,1200,1920,49,.75,1.5,0.75,False,,male,test2,fr,250,90,2,0,1,0.0,--,--,--,--,--
120,1200,1920,49,.75,1.5,0.75,False,,male,test2,fr,251,90,1,0,1,0.0,--,--,--,--,--
120,1200,1920,49,.75,1.5,0.75,False,,male,test2,fr,252,90,1,0,1,0.0,--,--,--,--,--
120,1200,1920,49,.75,1.5,0.75,False,,male,test2,fr,253,90,1,0,1,0.0,--,--,--,--,--
120,1200,1920,49,.75,1.5,0.75,False,,male,test2,fr,254,90,1,1,1,0.0,--,--,--,--,--
120,1200,1920,49,.75,1.5,0.75,False,,male,test2,fr,255,90,2,0,1,0.0,--,--,--,--,--
120,1200,1920,49,.75,1.5,0.75,False,,male,test2,fr,256,90,2,1,1,0.0,--,--,--,--,--
120,1200,1920,49,.75,1.5,0.75,False,,male,test2,fr,257,90,2,1,1,0.0,--,--,--,--,--
120,1200,1920,49,.75,1.5,0.75,False,,male,test2,fr,258,90,2,0,1,0.0,--,--,--,--,--
120,1200,1920,49,.75,1.5,0.75,False,,male,test2,fr,259,90,1,0,1,0.0,--,--,--,--,--
120,1200,1920,49,.75,1.5,0.75,False,,male,test2,fr,260,90,1,0,1,0.0,--,--,--,--,--
120,1200,1920,49,.75,1.5,0.75,False,,male,test2,fr,261,90,1,1,1,0.0,--,--,--,--,--
120,1200,1920,49,.75,1.5,0.75,False,,male,test2,fr,262,90,1,0,1,0.0,--,--,--,--,--
120,1200,1920,49,.75,1.5,0.75,False,,male,test2,fr,263,90,2,0,1,0.0,--,--,--,--,--
120,1200,1920,49,.75,1.5,0.75,False,,male,test2,fr,264,90,1,1,1,0.0,--,--,--,--,--
120,1200,1920,49,.75,1.5,0.75,False,,male,test2,fr,265,90,1,0,1,0.0,--,--,--,--,--
120,1200,1920,49,.75,1.5,0.75,False,,male,test2,fr,266,90,2,1,1,0.0,--,--,--,--,--
120,1200,1920,49,.75,1.5,0.75,False,,male,test2,fr,267,90,2,1,1,0.0,--,--,--,--,--
120,1200,1920,49,.75,1.5,0.75,False,,male,test2,fr,268,90,1,1,1,0.0,--,--,--,--,--
120,1200,1920,49,.75,1.5,0.75,False,,male,test2,fr,269,90,1,0,1,0.0,--,--,--,--,--
120,1200,1920,49,.75,1.5,0.75,False,,male,test2,fr,270,90,2,1,1,0.0,--,--,--,--,--
120,1200,1920,49,.75,1.5,0.75,False,,male,test2,fr,271,90,1,1,1,0.0,--,--,--,--,--
120,1200,1920,49,.75,1.5,0.75,False,,male,test2,fr,272,90,1,0,1,0.0,--,--,--,--,--
120,1200,1920,49,.75,1.5,0.75,False,,male,test2,fr,273,90,1,0,1,0.0,--,--,--,--,--
120,1200,1920,49,.75,1.5,0.75,False,,male,test2,fr,274,90,2,0,1,0.0,--,--,--,--,--
120,1200,1920,49,.75,1.5,0.75,False,,male,test2,fr,275,90,2,0,1,0.0,--,--,--,--,--
120,1200,1920,49,.75,1.5,0.75,False,,male,test2,fr,276,90,1,0,1,0.0,--,--,--,--,--
120,1200,1920,49,.75,1.5,0.75,False,,male,test2,fr,277,90,1,1,1,0.0,--,--,--,--,--
120,1200,1920,49,.75,1.5,0.75,False,,male,test2,fr,278,90,1,1,1,0.0,--,--,--,--,--
120,1200,1920,49,.75,1.5,0.75,False,,male,test2,fr,279,90,1,1,1,0.0,--,--,--,--,--
120,1200,1920,49,.75,1.5,0.75,False,,male,test2,fr,280,90,2,1,1,0.0,--,--,--,--,--
120,1200,1920,49,.75,1.5,0.75,False,,male,test2,fr,281,90,2,0,1,0.0,--,--,--,--,--
120,1200,1920,49,.75,1.5,0.75,False,,male,test2,fr,282,90,1,0,1,0.0,--,--,--,--,--
120,1200,1920,49,.75,1.5,0.75,False,,male,test2,fr,283,90,2,0,1,0.0,--,--,--,--,--
120,1200,1920,49,.75,1.5,0.75,False,,male,test2,fr,284,90,2,0,1,0.0,--,--,--,--,--
120,1200,1920,49,.75,1.5,0.75,False,,male,test2,fr,285,90,2,0,1,0.0,--,--,--,--,--
120,1200,1920,49,.75,1.5,0.75,False,,male,test2,fr,286,90,2,1,1,0.0,--,--,--,--,--
120,1200,1920,49,.75,1.5,0.75,False,,male,test2,fr,287,90,2,0,1,0.0,--,--,--,--,--
120,1200,1920,49,.75,1.5,0.75,False,,male,test2,fr,288,90,1,1,1,0.0,--,--,--,--,--
120,1200,1920,49,.75,1.5,0.75,False,,male,test2,fr,289,90,1,0,1,0.0,--,--,--,--,--
120,1200,1920,49,.75,1.5,0.75,False,,male,test2,fr,290,90,2,1,1,0.0,--,--,--,--,--
120,1200,1920,49,.75,1.5,0.75,False,,male,test2,fr,291,90,2,1,1,0.0,--,--,--,--,--
120,1200,1920,49,.75,1.5,0.75,False,,male,test2,fr,292,90,2,1,1,0.0,--,--,--,--,--
120,1200,1920,49,.75,1.5,0.75,False,,male,test2,fr,293,90,1,0,1,0.0,--,--,--,--,--
120,1200,1920,49,.75,1.5,0.75,False,,male,test2,fr,294,90,1,1,1,0.0,--,--,--,--,--
120,1200,1920,49,.75,1.5,0.75,False,,male,test2,fr,295,90,1,1,1,0.0,--,--,--,--,--
120,1200,1920,49,.75,1.5,0.75,False,,male,test2,fr,296,90,1,0,1,0.0,--,--,--,--,--
120,1200,1920,49,.75,1.5,0.75,False,,male,test2,fr,297,90,2,0,1,0.0,--,--,--,--,--
120,1200,1920,49,.75,1.5,0.75,False,,male,test2,fr,298,90,2,1,1,0.0,--,--,--,--,--
120,1200,1920,49,.75,1.5,0.75,False,,male,test2,fr,299,90,1,1,1,0.0,--,--,--,--,--
120,1200,1920,49,.75,1.5,0.75,False,,male,test2,fr,300,90,1,1,1,0.0,--,--,--,--,--
120,1200,1920,49,.75,1.5,0.75,False,,male,test2,fr,301,90,2,1,1,0.0,--,--,--,--,--
120,1200,1920,49,.75,1.5,0.75,False,,male,test2,fr,302,90,1,1,1,0.0,--,--,--,--,--
120,1200,1920,49,.75,1.5,0.75,False,,male,test2,fr,303,90,2,1,1,0.0,--,--,--,--,--
120,1200,1920,49,.75,1.5,0.75,False,,male,test2,fr,304,90,2,1,1,0.0,--,--,--,--,--
120,1200,1920,49,.75,1.5,0.75,False,,male,test2,fr,305,90,1,1,1,0.0,--,--,--,--,--
120,1200,1920,49,.75,1.5,0.75,False,,male,test2,fr,306,90,2,1,1,0.0,--,--,--,--,--
120,1200,1920,49,.75,1.5,0.75,False,,male,test2,fr,307,90,1,0,1,0.0,--,--,--,--,--
120,1200,1920,49,.75,1.5,0.75,False,,male,test2,fr,308,90,2,1,1,0.0,--,--,--,--,--
120,1200,1920,49,.75,1.5,0.75,False,,male,test2,fr,309,90,1,1,1,0.0,--,--,--,--,--
120,1200,1920,49,.75,1.5,0.75,False,,male,test2,fr,310,90,1,0,1,0.0,--,--,--,--,--
120,1200,1920,49,.75,1.5,0.75,False,,male,test2,fr,311,90,2,1,1,0.0,--,--,--,--,--
120,1200,1920,49,.75,1.5,0.75,False,,male,test2,fr,312,90,1,0,1,0.0,--,--,--,--,--
120,1200,1920,49,.75,1.5,0.75,False,,male,test2,fr,313,90,2,0,1,0.0,--,--,--,--,--
120,1200,1920,49,.75,1.5,0.75,False,,male,test2,fr,314,90,2,1,1,0.0,--,--,--,--,--
120,1200,1920,49,.75,1.5,0.75,False,,male,test2,fr,315,90,2,1,1,0.0,--,--,--,--,--
120,1200,1920,49,.75,1.5,0.75,False,,male,test2,fr,316,90,1,0,1,0.0,--,--,--,--,--
120,1200,1920,49,.75,1.5,0.75,False,,male,test2,fr,317,90,2,0,1,0.0,--,--,--,--,--
120,1200,1920,49,.75,1.5,0.75,False,,male,test2,fr,318,90,1,1,1,0.0,--,--,--,--,--
120,1200,1920,49,.75,1.5,0.75,False,,male,test2,fr,319,90,2,0,1,0.0,--,--,--,--,--
120,1200,1920,49,.75,1.5,0.75,False,,male,test2,fr,320,90,1,0,1,0.0,--,--,--,--,--
120,1200,1920,49,.75,1.5,0.75,False,,male,test2,fr,321,361,2,0,3,0.0,--,--,--,--,--
120,1200,1920,49,.75,1.5,0.75,False,,male,test2,fr,322,361,2,0,3,0.0,--,--,--,--,--
120,1200,1920,49,.75,1.5,0.75,False,,male,test2,fr,323,361,2,1,3,0.0,--,--,--,--,--
120,1200,1920,49,.75,1.5,0.75,False,,male,test2,fr,324,361,2,0,3,0.0,--,--,--,--,--
120,1200,1920,49,.75,1.5,0.75,False,,male,test2,fr,325,361,2,0,3,0.0,--,--,--,--,--
120,1200,1920,49,.75,1.5,0.75,False,,male,test2,fr,326,361,1,1,3,0.0,--,--,--,--,--
120,1200,1920,49,.75,1.5,0.75,False,,male,test2,fr,327,361,1,1,3,0.0,--,--,--,--,--
120,1200,1920,49,.75,1.5,0.75,False,,male,test2,fr,328,361,2,0,3,0.0,--,--,--,--,--
120,1200,1920,49,.75,1.5,0.75,False,,male,test2,fr,329,361,1,0,3,0.0,--,--,--,--,--
120,1200,1920,49,.75,1.5,0.75,False,,male,test2,fr,330,361,1,0,3,0.0,--,--,--,--,--
120,1200,1920,49,.75,1.5,0.75,False,,male,test2,fr,331,361,2,1,3,0.0,--,--,--,--,--
120,1200,1920,49,.75,1.5,0.75,False,,male,test2,fr,332,361,2,1,3,0.0,--,--,--,--,--
120,1200,1920,49,.75,1.5,0.75,False,,male,test2,fr,333,361,1,1,3,0.0,--,--,--,--,--
120,1200,1920,49,.75,1.5,0.75,False,,male,test2,fr,334,361,1,1,3,0.0,--,--,--,--,--
120,1200,1920,49,.75,1.5,0.75,False,,male,test2,fr,335,361,1,0,3,0.0,--,--,--,--,--
120,1200,1920,49,.75,1.5,0.75,False,,male,test2,fr,336,361,1,0,3,0.0,--,--,--,--,--
120,1200,1920,49,.75,1.5,0.75,False,,male,test2,fr,337,361,2,1,3,0.0,--,--,--,--,--
120,1200,1920,49,.75,1.5,0.75,False,,male,test2,fr,338,361,1,0,3,0.0,--,--,--,--,--
120,1200,1920,49,.75,1.5,0.75,False,,male,test2,fr,339,361,2,0,3,0.0,--,--,--,--,--
120,1200,1920,49,.75,1.5,0.75,False,,male,test2,fr,340,361,2,0,3,0.0,--,--,--,--,--
120,1200,1920,49,.75,1.5,0.75,False,,male,test2,fr,341,361,1,0,3,0.0,--,--,--,--,--
120,1200,1920,49,.75,1.5,0.75,False,,male,test2,fr,342,361,1,1,3,0.0,--,--,--,--,--
120,1200,1920,49,.75,1.5,0.75,False,,male,test2,fr,343,361,1,0,3,0.0,--,--,--,--,--
120,1200,1920,49,.75,1.5,0.75,False,,male,test2,fr,344,361,2,0,3,0.0,--,--,--,--,--
120,1200,1920,49,.75,1.5,0.75,False,,male,test2,fr,345,361,2,1,3,0.0,--,--,--,--,--
120,1200,1920,49,.75,1.5,0.75,False,,male,test2,fr,346,361,2,0,3,0.0,--,--,--,--,--
120,1200,1920,49,.75,1.5,0.75,False,,male,test2,fr,347,361,1,1,3,0.0,--,--,--,--,--
120,1200,1920,49,.75,1.5,0.75,False,,male,test2,fr,348,361,1,1,3,0.0,--,--,--,--,--
120,1200,1920,49,.75,1.5,0.75,False,,male,test2,fr,349,361,2,1,3,0.0,--,--,--,--,--
120,1200,1920,49,.75,1.5,0.75,False,,male,test2,fr,350,361,2,0,3,0.0,--,--,--,--,--
120,1200,1920,49,.75,1.5,0.75,False,,male,test2,fr,351,361,1,0,3,0.0,--,--,--,--,--
120,1200,1920,49,.75,1.5,0.75,False,,male,test2,fr,352,361,1,1,3,0.0,--,--,--,--,--
120,1200,1920,49,.75,1.5,0.75,False,,male,test2,fr,353,361,1,1,3,0.0,--,--,--,--,--
120,1200,1920,49,.75,1.5,0.75,False,,male,test2,fr,354,361,1,0,3,0.0,--,--,--,--,--
120,1200,1920,49,.75,1.5,0.75,False,,male,test2,fr,355,361,1,1,3,0.0,--,--,--,--,--
120,1200,1920,49,.75,1.5,0.75,False,,male,test2,fr,356,361,2,1,3,0.0,--,--,--,--,--
120,1200,1920,49,.75,1.5,0.75,False,,male,test2,fr,357,361,2,0,3,0.0,--,--,--,--,--
120,1200,1920,49,.75,1.5,0.75,False,,male,test2,fr,358,361,1,0,3,0.0,--,--,--,--,--
120,1200,1920,49,.75,1.5,0.75,False,,male,test2,fr,359,361,2,0,3,0.0,--,--,--,--,--
120,1200,1920,49,.75,1.5,0.75,False,,male,test2,fr,360,361,1,0,3,0.0,--,--,--,--,--
120,1200,1920,49,.75,1.5,0.75,False,,male,test2,fr,361,361,2,1,3,0.0,--,--,--,--,--
120,1200,1920,49,.75,1.5,0.75,False,,male,test2,fr,362,361,2,1,3,0.0,--,--,--,--,--
120,1200,1920,49,.75,1.5,0.75,False,,male,test2,fr,363,361,2,1,3,0.0,--,--,--,--,--
120,1200,1920,49,.75,1.5,0.75,False,,male,test2,fr,364,361,1,0,3,0.0,--,--,--,--,--
120,1200,1920,49,.75,1.5,0.75,False,,male,test2,fr,365,361,1,1,3,0.0,--,--,--,--,--
120,1200,1920,49,.75,1.5,0.75,False,,male,test2,fr,366,361,1,1,3,0.0,--,--,--,--,--
120,1200,1920,49,.75,1.5,0.75,False,,male,test2,fr,367,361,1,1,3,0.0,--,--,--,--,--
120,1200,1920,49,.75,1.5,0.75,False,,male,test2,fr,368,361,1,0,3,0.0,--,--,--,--,--
120,1200,1920,49,.75,1.5,0.75,False,,male,test2,fr,369,361,1,0,3,0.0,--,--,--,--,--
120,1200,1920,49,.75,1.5,0.75,False,,male,test2,fr,370,361,1,1,3,0.0,--,--,--,--,--
120,1200,1920,49,.75,1.5,0.75,False,,male,test2,fr,371,361,2,0,3,0.0,--,--,--,--,--
120,1200,1920,49,.75,1.5,0.75,False,,male,test2,fr,372,361,2,1,3,0.0,--,--,--,--,--
120,1200,1920,49,.75,1.5,0.75,False,,male,test2,fr,373,361,1,1,3,0.0,--,--,--,--,--
120,1200,1920,49,.75,1.5,0.75,False,,male,test2,fr,374,361,1,1,3,0.0,--,--,--,--,--
120,1200,1920,49,.75,1.5,0.75,False,,male,test2,fr,375,361,1,0,3,0.0,--,--,--,--,--
120,1200,1920,49,.75,1.5,0.75,False,,male,test2,fr,376,361,2,0,3,0.0,--,--,--,--,--
120,1200,1920,49,.75,1.5,0.75,False,,male,test2,fr,377,361,2,1,3,0.0,--,--,--,--,--
120,1200,1920,49,.75,1.5,0.75,False,,male,test2,fr,378,361,1,1,3,0.0,--,--,--,--,--
120,1200,1920,49,.75,1.5,0.75,False,,male,test2,fr,379,361,2,1,3,0.0,--,--,--,--,--
120,1200,1920,49,.75,1.5,0.75,False,,male,test2,fr,380,361,2,1,3,0.0,--,--,--,--,--
120,1200,1920,49,.75,1.5,0.75,False,,male,test2,fr,381,361,2,0,3,0.0,--,--,--,--,--
120,1200,1920,49,.75,1.5,0.75,False,,male,test2,fr,382,361,1,0,3,0.0,--,--,--,--,--
120,1200,1920,49,.75,1.5,0.75,False,,male,test2,fr,383,361,2,0,3,0.0,--,--,--,--,--
120,1200,1920,49,.75,1.5,0.75,False,,male,test2,fr,384,361,2,1,3,0.0,--,--,--,--,--
120,1200,1920,49,.75,1.5,0.75,False,,male,test2,fr,385,361,1,0,3,0.0,--,--,--,--,--
120,1200,1920,49,.75,1.5,0.75,False,,male,test2,fr,386,361,2,1,3,0.0,--,--,--,--,--
120,1200,1920,49,.75,1.5,0.75,False,,male,test2,fr,387,361,2,0,3,0.0,--,--,--,--,--
120,1200,1920,49,.75,1.5,0.75,False,,male,test2,fr,388,361,2,1,3,0.0,--,--,--,--,--
120,1200,1920,49,.75,1.5,0.75,False,,male,test2,fr,389,361,1,1,3,0.0,--,--,--,--,--
120,1200,1920,49,.75,1.5,0.75,False,,male,test2,fr,390,361,1,0,3,0.0,--,--,--,--,--
120,1200,1920,49,.75,1.5,0.75,False,,male,test2,fr,391,361,2,1,3,0.0,--,--,--,--,--
120,1200,1920,49,.75,1.5,0.75,False,,male,test2,fr,392,361,2,0,3,0.0,--,--,--,--,--
120,1200,1920,49,.75,1.5,0.75,False,,male,test2,fr,393,361,2,0,3,0.0,--,--,--,--,--
120,1200,1920,49,.75,1.5,0.75,False,,male,test2,fr,394,361,2,1,3,0.0,--,--,--,--,--
120,1200,1920,49,.75,1.5,0.75,False,,male,test2,fr,395,361,1,0,3,0.0,--,--,--,--,--
120,1200,1920,49,.75,1.5,0.75,False,,male,test2,fr,396,361,2,0,3,0.0,--,--,--,--,--
120,1200,1920,49,.75,1.5,0.75,False,,male,test2,fr,397,361,2,1,3,0.0,--,--,--,--,--
120,1200,1920,49,.75,1.5,0.75,False,,male,test2,fr,398,361,1,0,3,0.0,--,--,--,--,--
120,1200,1920,49,.75,1.5,0.75,False,,male,test2,fr,399,361,1,1,3,0.0,--,--,--,--,--
120,1200,1920,49,.75,1.5,0.75,False,,male,test2,fr,400,361,1,1,3,0.0,--,--,--,--,--
120,1200,1920,49,.75,1.5,0.75,False,,male,test2,fr,401,0,1,0,2,0.0,--,--,--,--,--
120,1200,1920,49,.75,1.5,0.75,False,,male,test2,fr,402,0,1,0,2,0.0,--,--,--,--,--
120,1200,1920,49,.75,1.5,0.75,False,,male,test2,fr,403,0,1,0,2,0.0,--,--,--,--,--
120,1200,1920,49,.75,1.5,0.75,False,,male,test2,fr,404,0,2,0,2,0.0,--,--,--,--,--
120,1200,1920,49,.75,1.5,0.75,False,,male,test2,fr,405,0,1,0,2,0.0,--,--,--,--,--
120,1200,1920,49,.75,1.5,0.75,False,,male,test2,fr,406,0,1,1,2,0.0,--,--,--,--,--
120,1200,1920,49,.75,1.5,0.75,False,,male,test2,fr,407,0,2,0,2,0.0,--,--,--,--,--
120,1200,1920,49,.75,1.5,0.75,False,,male,test2,fr,408,0,1,1,2,0.0,--,--,--,--,--
120,1200,1920,49,.75,1.5,0.75,False,,male,test2,fr,409,0,1,0,2,0.0,--,--,--,--,--
120,1200,1920,49,.75,1.5,0.75,False,,male,test2,fr,410,0,2,0,2,0.0,--,--,--,--,--
120,1200,1920,49,.75,1.5,0.75,False,,male,test2,fr,411,0,1,1,2,0.0,--,--,--,--,--
120,1200,1920,49,.75,1.5,0.75,False,,male,test2,fr,412,0,1,1,2,0.0,--,--,--,--,--
120,1200,1920,49,.75,1.5,0.75,False,,male,test2,fr,413,0,2,0,2,0.0,--,--,--,--,--
120,1200,1920,49,.75,1.5,0.75,False,,male,test2,fr,414,0,2,0,2,0.0,--,--,--,--,--
120,1200,1920,49,.75,1.5,0.75,False,,male,test2,fr,415,0,2,1,2,0.0,--,--,--,--,--
120,1200,1920,49,.75,1.5,0.75,False,,male,test2,fr,416,0,1,0,2,0.0,--,--,--,--,--
120,1200,1920,49,.75,1.5,0.75,False,,male,test2,fr,417,0,1,0,2,0.0,--,--,--,--,--
120,1200,1920,49,.75,1.5,0.75,False,,male,test2,fr,418,0,1,0,2,0.0,--,--,--,--,--
120,1200,1920,49,.75,1.5,0.75,False,,male,test2,fr,419,0,2,1,2,0.0,--,--,--,--,--
120,1200,1920,49,.75,1.5,0.75,False,,male,test2,fr,420,0,2,0,2,0.0,--,--,--,--,--
120,1200,1920,49,.75,1.5,0.75,False,,male,test2,fr,421,0,1,0,2,0.0,--,--,--,--,--
120,1200,1920,49,.75,1.5,0.75,False,,male,test2,fr,422,0,1,1,2,0.0,--,--,--,--,--
120,1200,1920,49,.75,1.5,0.75,False,,male,test2,fr,423,0,2,1,2,0.0,--,--,--,--,--
120,1200,1920,49,.75,1.5,0.75,False,,male,test2,fr,424,0,2,1,2,0.0,--,--,--,--,--
120,1200,1920,49,.75,1.5,0.75,False,,male,test2,fr,425,0,1,1,2,0.0,--,--,--,--,--
120,1200,1920,49,.75,1.5,0.75,False,,male,test2,fr,426,0,2,0,2,0.0,--,--,--,--,--
120,1200,1920,49,.75,1.5,0.75,False,,male,test2,fr,427,0,1,0,2,0.0,--,--,--,--,--
120,1200,1920,49,.75,1.5,0.75,False,,male,test2,fr,428,0,2,0,2,0.0,--,--,--,--,--
120,1200,1920,49,.75,1.5,0.75,False,,male,test2,fr,429,0,2,1,2,0.0,--,--,--,--,--
120,1200,1920,49,.75,1.5,0.75,False,,male,test2,fr,430,0,2,1,2,0.0,--,--,--,--,--
120,1200,1920,49,.75,1.5,0.75,False,,male,test2,fr,431,0,2,0,2,0.0,--,--,--,--,--
120,1200,1920,49,.75,1.5,0.75,False,,male,test2,fr,432,0,1,1,2,0.0,--,--,--,--,--
120,1200,1920,49,.75,1.5,0.75,False,,male,test2,fr,433,0,1,1,2,0.0,--,--,--,--,--
120,1200,1920,49,.75,1.5,0.75,False,,male,test2,fr,434,0,2,1,2,0.0,--,--,--,--,--
120,1200,1920,49,.75,1.5,0.75,False,,male,test2,fr,435,0,1,0,2,0.0,--,--,--,--,--
120,1200,1920,49,.75,1.5,0.75,False,,male,test2,fr,436,0,1,1,2,0.0,--,--,--,--,--
120,1200,1920,49,.75,1.5,0.75,False,,male,test2,fr,437,0,1,0,2,0.0,--,--,--,--,--
120,1200,1920,49,.75,1.5,0.75,False,,male,test2,fr,438,0,2,1,2,0.0,--,--,--,--,--
120,1200,1920,49,.75,1.5,0.75,False,,male,test2,fr,439,0,2,1,2,0.0,--,--,--,--,--
120,1200,1920,49,.75,1.5,0.75,False,,male,test2,fr,440,0,2,1,2,0.0,--,--,--,--,--
120,1200,1920,49,.75,1.5,0.75,False,,male,test2,fr,441,0,1,1,2,0.0,--,--,--,--,--
120,1200,1920,49,.75,1.5,0.75,False,,male,test2,fr,442,0,2,1,2,0.0,--,--,--,--,--
120,1200,1920,49,.75,1.5,0.75,False,,male,test2,fr,443,0,1,0,2,0.0,--,--,--,--,--
120,1200,1920,49,.75,1.5,0.75,False,,male,test2,fr,444,0,2,1,2,0.0,--,--,--,--,--
120,1200,1920,49,.75,1.5,0.75,False,,male,test2,fr,445,0,2,0,2,0.0,--,--,--,--,--
120,1200,1920,49,.75,1.5,0.75,False,,male,test2,fr,446,0,2,1,2,0.0,--,--,--,--,--
120,1200,1920,49,.75,1.5,0.75,False,,male,test2,fr,447,0,2,1,2,0.0,--,--,--,--,--
120,1200,1920,49,.75,1.5,0.75,False,,male,test2,fr,448,0,1,0,2,0.0,--,--,--,--,--
120,1200,1920,49,.75,1.5,0.75,False,,male,test2,fr,449,0,2,0,2,0.0,--,--,--,--,--
120,1200,1920,49,.75,1.5,0.75,False,,male,test2,fr,450,0,2,0,2,0.0,--,--,--,--,--
120,1200,1920,49,.75,1.5,0.75,False,,male,test2,fr,451,0,2,1,2,0.0,--,--,--,--,--
120,1200,1920,49,.75,1.5,0.75,False,,male,test2,fr,452,0,2,1,2,0.0,--,--,--,--,--
120,1200,1920,49,.75,1.5,0.75,False,,male,test2,fr,453,0,1,1,2,0.0,--,--,--,--,--
120,1200,1920,49,.75,1.5,0.75,False,,male,test2,fr,454,0,1,1,2,0.0,--,--,--,--,--
120,1200,1920,49,.75,1.5,0.75,False,,male,test2,fr,455,0,1,1,2,0.0,--,--,--,--,--
120,1200,1920,49,.75,1.5,0.75,False,,male,test2,fr,456,0,2,0,2,0.0,--,--,--,--,--
120,1200,1920,49,.75,1.5,0.75,False,,male,test2,fr,457,0,1,0,2,0.0,--,--,--,--,--
120,1200,1920,49,.75,1.5,0.75,False,,male,test2,fr,458,0,1,0,2,0.0,--,--,--,--,--
120,1200,1920,49,.75,1.5,0.75,False,,male,test2,fr,459,0,1,0,2,0.0,--,--,--,--,--
120,1200,1920,49,.75,1.5,0.75,False,,male,test2,fr,460,0,2,0,2,0.0,--,--,--,--,--
120,1200,1920,49,.75,1.5,0.75,False,,male,test2,fr,461,0,1,1,2,0.0,--,--,--,--,--
120,1200,1920,49,.75,1.5,0.75,False,,male,test2,fr,462,0,1,1,2,0.0,--,--,--,--,--
120,1200,1920,49,.75,1.5,0.75,False,,male,test2,fr,463,0,2,1,2,0.0,--,--,--,--,--
120,1200,1920,49,.75,1.5,0.75,False,,male,test2,fr,464,0,2,1,2,0.0,--,--,--,--,--
120,1200,1920,49,.75,1.5,0.75,False,,male,test2,fr,465,0,1,1,2,0.0,--,--,--,--,--
120,1200,1920,49,.75,1.5,0.75,False,,male,test2,fr,466,0,2,0,2,0.0,--,--,--,--,--
120,1200,1920,49,.75,1.5,0.75,False,,male,test2,fr,467,0,1,1,2,0.0,--,--,--,--,--
120,1200,1920,49,.75,1.5,0.75,False,,male,test2,fr,468,0,1,1,2,0.0,--,--,--,--,--
120,1200,1920,49,.75,1.5,0.75,False,,male,test2,fr,469,0,1,1,2,0.0,--,--,--,--,--
120,1200,1920,49,.75,1.5,0.75,False,,male,test2,fr,470,0,1,0,2,0.0,--,--,--,--,--
120,1200,1920,49,.75,1.5,0.75,False,,male,test2,fr,471,0,2,0,2,0.0,--,--,--,--,--
120,1200,1920,49,.75,1.5,0.75,False,,male,test2,fr,472,0,1,0,2,0.0,--,--,--,--,--
120,1200,1920,49,.75,1.5,0.75,False,,male,test2,fr,473,0,2,1,2,0.0,--,--,--,--,--
120,1200,1920,49,.75,1.5,0.75,False,,male,test2,fr,474,0,2,0,2,0.0,--,--,--,--,--
120,1200,1920,49,.75,1.5,0.75,False,,male,test2,fr,475,0,1,0,2,0.0,--,--,--,--,--
120,1200,1920,49,.75,1.5,0.75,False,,male,test2,fr,476,0,1,1,2,0.0,--,--,--,--,--
120,1200,1920,49,.75,1.5,0.75,False,,male,test2,fr,477,0,2,0,2,0.0,--,--,--,--,--
120,1200,1920,49,.75,1.5,0.75,False,,male,test2,fr,478,0,2,1,2,0.0,--,--,--,--,--
120,1200,1920,49,.75,1.5,0.75,False,,male,test2,fr,479,0,2,0,2,0.0,--,--,--,--,--
120,1200,1920,49,.75,1.5,0.75,False,,male,test2,fr,480,0,2,0,2,0.0,--,--,--,--,--
120,1200,1920,49,.75,1.5,0.75,False,,male,test2,fr,481,0,1,0,2,0.0,--,--,--,--,--
120,1200,1920,49,.75,1.5,0.75,False,,male,test2,fr,482,0,1,0,2,0.0,--,--,--,--,--
120,1200,1920,49,.75,1.5,0.75,False,,male,test2,fr,483,0,1,0,2,0.0,--,--,--,--,--
120,1200,1920,49,.75,1.5,0.75,False,,male,test2,fr,484,0,2,0,2,0.0,--,--,--,--,--
120,1200,1920,49,.75,1.5,0.75,False,,male,test2,fr,485,0,1,0,2,0.0,--,--,--,--,--
120,1200,1920,49,.75,1.5,0.75,False,,male,test2,fr,486,0,1,1,2,0.0,--,--,--,--,--
120,1200,1920,49,.75,1.5,0.75,False,,male,test2,fr,487,0,2,0,2,0.0,--,--,--,--,--
120,1200,1920,49,.75,1.5,0.75,False,,male,test2,fr,488,0,1,1,2,0.0,--,--,--,--,--
120,1200,1920,49,.75,1.5,0.75,False,,male,test2,fr,489,0,1,0,2,0.0,--,--,--,--,--
120,1200,1920,49,.75,1.5,0.75,False,,male,test2,fr,490,0,2,0,2,0.0,--,--,--,--,--
120,1200,1920,49,.75,1.5,0.75,False,,male,test2,fr,491,0,1,1,2,0.0,--,--,--,--,--
120,1200,1920,49,.75,1.5,0.75,False,,male,test2,fr,492,0,1,1,2,0.0,--,--,--,--,--
120,1200,1920,49,.75,1.5,0.75,False,,male,test2,fr,493,0,2,0,2,0.0,--,--,--,--,--
120,1200,1920,49,.75,1.5,0.75,False,,male,test2,fr,494,0,2,0,2,0.0,--,--,--,--,--
120,1200,1920,49,.75,1.5,0.75,False,,male,test2,fr,495,0,2,1,2,0.0,--,--,--,--,--
120,1200,1920,49,.75,1.5,0.75,False,,male,test2,fr,496,0,1,0,2,0.0,--,--,--,--,--
120,1200,1920,49,.75,1.5,0.75,False,,male,test2,fr,497,0,1,0,2,0.0,--,--,--,--,--
120,1200,1920,49,.75,1.5,0.75,False,,male,test2,fr,498,0,1,0,2,0.0,--,--,--,--,--
120,1200,1920,49,.75,1.5,0.75,False,,male,test2,fr,499,0,2,1,2,0.0,--,--,--,--,--
120,1200,1920,49,.75,1.5,0.75,False,,male,test2,fr,500,0,2,0,2,0.0,--,--,--,--,--
120,1200,1920,49,.75,1.5,0.75,False,,male,test2,fr,501,0,1,0,2,0.0,--,--,--,--,--
120,1200,1920,49,.75,1.5,0.75,False,,male,test2,fr,502,0,1,1,2,0.0,--,--,--,--,--
120,1200,1920,49,.75,1.5,0.75,False,,male,test2,fr,503,0,2,1,2,0.0,--,--,--,--,--
120,1200,1920,49,.75,1.5,0.75,False,,male,test2,fr,504,0,2,1,2,0.0,--,--,--,--,--
120,1200,1920,49,.75,1.5,0.75,False,,male,test2,fr,505,0,1,1,2,0.0,--,--,--,--,--
120,1200,1920,49,.75,1.5,0.75,False,,male,test2,fr,506,0,2,0,2,0.0,--,--,--,--,--
120,1200,1920,49,.75,1.5,0.75,False,,male,test2,fr,507,0,1,0,2,0.0,--,--,--,--,--
120,1200,1920,49,.75,1.5,0.75,False,,male,test2,fr,508,0,2,0,2,0.0,--,--,--,--,--
120,1200,1920,49,.75,1.5,0.75,False,,male,test2,fr,509,0,2,1,2,0.0,--,--,--,--,--
120,1200,1920,49,.75,1.5,0.75,False,,male,test2,fr,510,0,2,1,2,0.0,--,--,--,--,--
120,1200,1920,49,.75,1.5,0.75,False,,male,test2,fr,511,0,2,0,2,0.0,--,--,--,--,--
120,1200,1920,49,.75,1.5,0.75,False,,male,test2,fr,512,0,1,1,2,0.0,--,--,--,--,--
120,1200,1920,49,.75,1.5,0.75,False,,male,test2,fr,513,0,1,1,2,0.0,--,--,--,--,--
120,1200,1920,49,.75,1.5,0.75,False,,male,test2,fr,514,0,2,1,2,0.0,--,--,--,--,--
120,1200,1920,49,.75,1.5,0.75,False,,male,test2,fr,515,0,1,0,2,0.0,--,--,--,--,--
120,1200,1920,49,.75,1.5,0.75,False,,male,test2,fr,516,0,1,1,2,0.0,--,--,--,--,--
120,1200,1920,49,.75,1.5,0.75,False,,male,test2,fr,517,0,1,0,2,0.0,--,--,--,--,--
120,1200,1920,49,.75,1.5,0.75,False,,male,test2,fr,518,0,2,1,2,0.0,--,--,--,--,--
120,1200,1920,49,.75,1.5,0.75,False,,male,test2,fr,519,0,2,1,2,0.0,--,--,--,--,--
120,1200,1920,49,.75,1.5,0.75,False,,male,test2,fr,520,0,2,1,2,0.0,--,--,--,--,--
120,1200,1920,49,.75,1.5,0.75,False,,male,test2,fr,521,0,1,1,2,0.0,--,--,--,--,--
120,1200,1920,49,.75,1.5,0.75,False,,male,test2,fr,522,0,2,1,2,0.0,--,--,--,--,--
120,1200,1920,49,.75,1.5,0.75,False,,male,test2,fr,523,0,1,0,2,0.0,--,--,--,--,--
120,1200,1920,49,.75,1.5,0.75,False,,male,test2,fr,524,0,2,1,2,0.0,--,--,--,--,--
120,1200,1920,49,.75,1.5,0.75,False,,male,test2,fr,525,0,2,0,2,0.0,--,--,--,--,--
120,1200,1920,49,.75,1.5,0.75,False,,male,test2,fr,526,0,2,1,2,0.0,--,--,--,--,--
120,1200,1920,49,.75,1.5,0.75,False,,male,test2,fr,527,0,2,1,2,0.0,--,--,--,--,--
120,1200,1920,49,.75,1.5,0.75,False,,male,test2,fr,528,0,1,0,2,0.0,--,--,--,--,--
120,1200,1920,49,.75,1.5,0.75,False,,male,test2,fr,529,0,2,0,2,0.0,--,--,--,--,--
120,1200,1920,49,.75,1.5,0.75,False,,male,test2,fr,530,0,2,0,2,0.0,--,--,--,--,--
120,1200,1920,49,.75,1.5,0.75,False,,male,test2,fr,531,0,2,1,2,0.0,--,--,--,--,--
120,1200,1920,49,.75,1.5,0.75,False,,male,test2,fr,532,0,2,1,2,0.0,--,--,--,--,--
120,1200,1920,49,.75,1.5,0.75,False,,male,test2,fr,533,0,1,1,2,0.0,--,--,--,--,--
120,1200,1920,49,.75,1.5,0.75,False,,male,test2,fr,534,0,1,1,2,0.0,--,--,--,--,--
120,1200,1920,49,.75,1.5,0.75,False,,male,test2,fr,535,0,1,1,2,0.0,--,--,--,--,--
120,1200,1920,49,.75,1.5,0.75,False,,male,test2,fr,536,0,2,0,2,0.0,--,--,--,--,--
120,1200,1920,49,.75,1.5,0.75,False,,male,test2,fr,537,0,1,0,2,0.0,--,--,--,--,--
120,1200,1920,49,.75,1.5,0.75,False,,male,test2,fr,538,0,1,0,2,0.0,--,--,--,--,--
120,1200,1920,49,.75,1.5,0.75,False,,male,test2,fr,539,0,1,0,2,0.0,--,--,--,--,--
120,1200,1920,49,.75,1.5,0.75,False,,male,test2,fr,540,0,2,0,2,0.0,--,--,--,--,--
120,1200,1920,49,.75,1.5,0.75,False,,male,test2,fr,541,0,1,1,2,0.0,--,--,--,--,--
120,1200,1920,49,.75,1.5,0.75,False,,male,test2,fr,542,0,1,1,2,0.0,--,--,--,--,--
120,1200,1920,49,.75,1.5,0.75,False,,male,test2,fr,543,0,2,1,2,0.0,--,--,--,--,--
120,1200,1920,49,.75,1.5,0.75,False,,male,test2,fr,544,0,2,1,2,0.0,--,--,--,--,--
120,1200,1920,49,.75,1.5,0.75,False,,male,test2,fr,545,0,1,1,2,0.0,--,--,--,--,--
120,1200,1920,49,.75,1.5,0.75,False,,male,test2,fr,546,0,2,0,2,0.0,--,--,--,--,--
120,1200,1920,49,.75,1.5,0.75,False,,male,test2,fr,547,0,1,1,2,0.0,--,--,--,--,--
120,1200,1920,49,.75,1.5,0.75,False,,male,test2,fr,548,0,1,1,2,0.0,--,--,--,--,--
120,1200,1920,49,.75,1.5,0.75,False,,male,test2,fr,549,0,1,1,2,0.0,--,--,--,--,--
120,1200,1920,49,.75,1.5,0.75,False,,male,test2,fr,550,0,1,0,2,0.0,--,--,--,--,--
120,1200,1920,49,.75,1.5,0.75,False,,male,test2,fr,551,0,2,0,2,0.0,--,--,--,--,--
120,1200,1920,49,.75,1.5,0.75,False,,male,test2,fr,552,0,1,0,2,0.0,--,--,--,--,--
120,1200,1920,49,.75,1.5,0.75,False,,male,test2,fr,553,0,2,1,2,0.0,--,--,--,--,--
120,1200,1920,49,.75,1.5,0.75,False,,male,test2,fr,554,0,2,0,2,0.0,--,--,--,--,--
120,1200,1920,49,.75,1.5,0.75,False,,male,test2,fr,555,0,1,0,2,0.0,--,--,--,--,--
120,1200,1920,49,.75,1.5,0.75,False,,male,test2,fr,556,0,1,1,2,0.0,--,--,--,--,--
120,1200,1920,49,.75,1.5,0.75,False,,male,test2,fr,557,0,2,0,2,0.0,--,--,--,--,--
120,1200,1920,49,.75,1.5,0.75,False,,male,test2,fr,558,0,2,1,2,0.0,--,--,--,--,--
120,1200,1920,49,.75,1.5,0.75,False,,male,test2,fr,559,0,2,0,2,0.0,--,--,--,--,--
120,1200,1920,49,.75,1.5,0.75,False,,male,test2,fr,560,0,2,0,2,0.0,--,--,--,--,--
120,1200,1920,49,.75,1.5,0.75,False,,male,test2,fr,561,361,2,0,3,0.0,--,--,--,--,--
120,1200,1920,49,.75,1.5,0.75,False,,male,test2,fr,562,361,2,0,3,0.0,--,--,--,--,--
120,1200,1920,49,.75,1.5,0.75,False,,male,test2,fr,563,361,2,1,3,0.0,--,--,--,--,--
120,1200,1920,49,.75,1.5,0.75,False,,male,test2,fr,564,361,2,0,3,0.0,--,--,--,--,--
120,1200,1920,49,.75,1.5,0.75,False,,male,test2,fr,565,361,2,0,3,0.0,--,--,--,--,--
120,1200,1920,49,.75,1.5,0.75,False,,male,test2,fr,566,361,1,1,3,0.0,--,--,--,--,--
120,1200,1920,49,.75,1.5,0.75,False,,male,test2,fr,567,361,1,1,3,0.0,--,--,--,--,--
120,1200,1920,49,.75,1.5,0.75,False,,male,test2,fr,568,361,2,0,3,0.0,--,--,--,--,--
120,1200,1920,49,.75,1.5,0.75,False,,male,test2,fr,569,361,1,0,3,0.0,--,--,--,--,--
120,1200,1920,49,.75,1.5,0.75,False,,male,test2,fr,570,361,1,0,3,0.0,--,--,--,--,--
120,1200,1920,49,.75,1.5,0.75,False,,male,test2,fr,571,361,2,1,3,0.0,--,--,--,--,--
120,1200,1920,49,.75,1.5,0.75,False,,male,test2,fr,572,361,2,1,3,0.0,--,--,--,--,--
120,1200,1920,49,.75,1.5,0.75,False,,male,test2,fr,573,361,1,1,3,0.0,--,--,--,--,--
120,1200,1920,49,.75,1.5,0.75,False,,male,test2,fr,574,361,1,1,3,0.0,--,--,--,--,--
120,1200,1920,49,.75,1.5,0.75,False,,male,test2,fr,575,361,1,0,3,0.0,--,--,--,--,--
120,1200,1920,49,.75,1.5,0.75,False,,male,test2,fr,576,361,1,0,3,0.0,--,--,--,--,--
120,1200,1920,49,.75,1.5,0.75,False,,male,test2,fr,577,361,2,1,3,0.0,--,--,--,--,--
120,1200,1920,49,.75,1.5,0.75,False,,male,test2,fr,578,361,1,0,3,0.0,--,--,--,--,--
120,1200,1920,49,.75,1.5,0.75,False,,male,test2,fr,579,361,2,0,3,0.0,--,--,--,--,--
120,1200,1920,49,.75,1.5,0.75,False,,male,test2,fr,580,361,2,0,3,0.0,--,--,--,--,--
120,1200,1920,49,.75,1.5,0.75,False,,male,test2,fr,581,361,1,0,3,0.0,--,--,--,--,--
120,1200,1920,49,.75,1.5,0.75,False,,male,test2,fr,582,361,1,1,3,0.0,--,--,--,--,--
120,1200,1920,49,.75,1.5,0.75,False,,male,test2,fr,583,361,1,0,3,0.0,--,--,--,--,--
120,1200,1920,49,.75,1.5,0.75,False,,male,test2,fr,584,361,2,0,3,0.0,--,--,--,--,--
120,1200,1920,49,.75,1.5,0.75,False,,male,test2,fr,585,361,2,1,3,0.0,--,--,--,--,--
120,1200,1920,49,.75,1.5,0.75,False,,male,test2,fr,586,361,2,0,3,0.0,--,--,--,--,--
120,1200,1920,49,.75,1.5,0.75,False,,male,test2,fr,587,361,1,1,3,0.0,--,--,--,--,--
120,1200,1920,49,.75,1.5,0.75,False,,male,test2,fr,588,361,1,1,3,0.0,--,--,--,--,--
120,1200,1920,49,.75,1.5,0.75,False,,male,test2,fr,589,361,2,1,3,0.0,--,--,--,--,--
120,1200,1920,49,.75,1.5,0.75,False,,male,test2,fr,590,361,2,0,3,0.0,--,--,--,--,--
120,1200,1920,49,.75,1.5,0.75,False,,male,test2,fr,591,361,1,0,3,0.0,--,--,--,--,--
120,1200,1920,49,.75,1.5,0.75,False,,male,test2,fr,592,361,1,1,3,0.0,--,--,--,--,--
120,1200,1920,49,.75,1.5,0.75,False,,male,test2,fr,593,361,1,1,3,0.0,--,--,--,--,--
120,1200,1920,49,.75,1.5,0.75,False,,male,test2,fr,594,361,1,0,3,0.0,--,--,--,--,--
120,1200,1920,49,.75,1.5,0.75,False,,male,test2,fr,595,361,1,1,3,0.0,--,--,--,--,--
120,1200,1920,49,.75,1.5,0.75,False,,male,test2,fr,596,361,2,1,3,0.0,--,--,--,--,--
120,1200,1920,49,.75,1.5,0.75,False,,male,test2,fr,597,361,2,0,3,0.0,--,--,--,--,--
120,1200,1920,49,.75,1.5,0.75,False,,male,test2,fr,598,361,1,0,3,0.0,--,--,--,--,--
120,1200,1920,49,.75,1.5,0.75,False,,male,test2,fr,599,361,2,0,3,0.0,--,--,--,--,--
120,1200,1920,49,.75,1.5,0.75,False,,male,test2,fr,600,361,1,0,3,0.0,--,--,--,--,--
120,1200,1920,49,.75,1.5,0.75,False,,male,test2,fr,601,361,2,1,3,0.0,--,--,--,--,--
120,1200,1920,49,.75,1.5,0.75,False,,male,test2,fr,602,361,2,1,3,0.0,--,--,--,--,--
120,1200,1920,49,.75,1.5,0.75,False,,male,test2,fr,603,361,2,1,3,0.0,--,--,--,--,--
120,1200,1920,49,.75,1.5,0.75,False,,male,test2,fr,604,361,1,0,3,0.0,--,--,--,--,--
120,1200,1920,49,.75,1.5,0.75,False,,male,test2,fr,605,361,1,1,3,0.0,--,--,--,--,--
120,1200,1920,49,.75,1.5,0.75,False,,male,test2,fr,606,361,1,1,3,0.0,--,--,--,--,--
120,1200,1920,49,.75,1.5,0.75,False,,male,test2,fr,607,361,1,1,3,0.0,--,--,--,--,--
120,1200,1920,49,.75,1.5,0.75,False,,male,test2,fr,608,361,1,0,3,0.0,--,--,--,--,--
120,1200,1920,49,.75,1.5,0.75,False,,male,test2,fr,609,361,1,0,3,0.0,--,--,--,--,--
120,1200,1920,49,.75,1.5,0.75,False,,male,test2,fr,610,361,1,1,3,0.0,--,--,--,--,--
120,1200,1920,49,.75,1.5,0.75,False,,male,test2,fr,611,361,2,0,3,0.0,--,--,--,--,--
120,1200,1920,49,.75,1.5,0.75,False,,male,test2,fr,612,361,2,1,3,0.0,--,--,--,--,--
120,1200,1920,49,.75,1.5,0.75,False,,male,test2,fr,613,361,1,1,3,0.0,--,--,--,--,--
120,1200,1920,49,.75,1.5,0.75,False,,male,test2,fr,614,361,1,1,3,0.0,--,--,--,--,--
120,1200,1920,49,.75,1.5,0.75,False,,male,test2,fr,615,361,1,0,3,0.0,--,--,--,--,--
120,1200,1920,49,.75,1.5,0.75,False,,male,test2,fr,616,361,2,0,3,0.0,--,--,--,--,--
120,1200,1920,49,.75,1.5,0.75,False,,male,test2,fr,617,361,2,1,3,0.0,--,--,--,--,--
120,1200,1920,49,.75,1.5,0.75,False,,male,test2,fr,618,361,1,1,3,0.0,--,--,--,--,--
120,1200,1920,49,.75,1.5,0.75,False,,male,test2,fr,619,361,2,1,3,0.0,--,--,--,--,--
120,1200,1920,49,.75,1.5,0.75,False,,male,test2,fr,620,361,2,1,3,0.0,--,--,--,--,--
120,1200,1920,49,.75,1.5,0.75,False,,male,test2,fr,621,361,2,0,3,0.0,--,--,--,--,--
120,1200,1920,49,.75,1.5,0.75,False,,male,test2,fr,622,361,1,0,3,0.0,--,--,--,--,--
120,1200,1920,49,.75,1.5,0.75,False,,male,test2,fr,623,361,2,0,3,0.0,--,--,--,--,--
120,1200,1920,49,.75,1.5,0.75,False,,male,test2,fr,624,361,2,1,3,0.0,--,--,--,--,--
120,1200,1920,49,.75,1.5,0.75,False,,male,test2,fr,625,361,1,0,3,0.0,--,--,--,--,--
120,1200,1920,49,.75,1.5,0.75,False,,male,test2,fr,626,361,2,1,3,0.0,--,--,--,--,--
120,1200,1920,49,.75,1.5,0.75,False,,male,test2,fr,627,361,2,0,3,0.0,--,--,--,--,--
120,1200,1920,49,.75,1.5,0.75,False,,male,test2,fr,628,361,2,1,3,0.0,--,--,--,--,--
120,1200,1920,49,.75,1.5,0.75,False,,male,test2,fr,629,361,1,1,3,0.0,--,--,--,--,--
120,1200,1920,49,.75,1.5,0.75,False,,male,test2,fr,630,361,1,0,3,0.0,--,--,--,--,--
120,1200,1920,49,.75,1.5,0.75,False,,male,test2,fr,631,361,2,1,3,0.0,--,--,--,--,--
120,1200,1920,49,.75,1.5,0.75,False,,male,test2,fr,632,361,2,0,3,0.0,--,--,--,--,--
120,1200,1920,49,.75,1.5,0.75,False,,male,test2,fr,633,361,2,0,3,0.0,--,--,--,--,--
120,1200,1920,49,.75,1.5,0.75,False,,male,test2,fr,634,361,2,1,3,0.0,--,--,--,--,--
120,1200,1920,49,.75,1.5,0.75,False,,male,test2,fr,635,361,1,0,3,0.0,--,--,--,--,--
120,1200,1920,49,.75,1.5,0.75,False,,male,test2,fr,636,361,2,0,3,0.0,--,--,--,--,--
120,1200,1920,49,.75,1.5,0.75,False,,male,test2,fr,637,361,2,1,3,0.0,--,--,--,--,--
120,1200,1920,49,.75,1.5,0.75,False,,male,test2,fr,638,361,1,0,3,0.0,--,--,--,--,--
120,1200,1920,49,.75,1.5,0.75,False,,male,test2,fr,639,361,1,1,3,0.0,--,--,--,--,--
120,1200,1920,49,.75,1.5,0.75,False,,male,test2,fr,640,361,1,1,3,0.0,--,--,--,--,--
120,1200,1920,49,.75,1.5,0.75,False,,male,test2,fr,641,90,2,0,1,0.0,--,--,--,--,--
120,1200,1920,49,.75,1.5,0.75,False,,male,test2,fr,642,90,2,0,1,0.0,--,--,--,--,--
120,1200,1920,49,.75,1.5,0.75,False,,male,test2,fr,643,90,1,1,1,0.0,--,--,--,--,--
120,1200,1920,49,.75,1.5,0.75,False,,male,test2,fr,644,90,2,0,1,0.0,--,--,--,--,--
120,1200,1920,49,.75,1.5,0.75,False,,male,test2,fr,645,90,2,1,1,0.0,--,--,--,--,--
120,1200,1920,49,.75,1.5,0.75,False,,male,test2,fr,646,90,1,1,1,0.0,--,--,--,--,--
120,1200,1920,49,.75,1.5,0.75,False,,male,test2,fr,647,90,2,0,1,0.0,--,--,--,--,--
120,1200,1920,49,.75,1.5,0.75,False,,male,test2,fr,648,90,2,0,1,0.0,--,--,--,--,--
120,1200,1920,49,.75,1.5,0.75,False,,male,test2,fr,649,90,1,1,1,0.0,--,--,--,--,--
120,1200,1920,49,.75,1.5,0.75,False,,male,test2,fr,650,90,2,0,1,0.0,--,--,--,--,--
120,1200,1920,49,.75,1.5,0.75,False,,male,test2,fr,651,90,1,0,1,0.0,--,--,--,--,--
120,1200,1920,49,.75,1.5,0.75,False,,male,test2,fr,652,90,1,0,1,0.0,--,--,--,--,--
120,1200,1920,49,.75,1.5,0.75,False,,male,test2,fr,653,90,1,0,1,0.0,--,--,--,--,--
120,1200,1920,49,.75,1.5,0.75,False,,male,test2,fr,654,90,1,1,1,0.0,--,--,--,--,--
120,1200,1920,49,.75,1.5,0.75,False,,male,test2,fr,655,90,2,0,1,0.0,--,--,--,--,--
120,1200,1920,49,.75,1.5,0.75,False,,male,test2,fr,656,90,2,1,1,0.0,--,--,--,--,--
120,1200,1920,49,.75,1.5,0.75,False,,male,test2,fr,657,90,2,1,1,0.0,--,--,--,--,--
120,1200,1920,49,.75,1.5,0.75,False,,male,test2,fr,658,90,2,0,1,0.0,--,--,--,--,--
120,1200,1920,49,.75,1.5,0.75,False,,male,test2,fr,659,90,1,0,1,0.0,--,--,--,--,--
120,1200,1920,49,.75,1.5,0.75,False,,male,test2,fr,660,90,1,0,1,0.0,--,--,--,--,--
120,1200,1920,49,.75,1.5,0.75,False,,male,test2,fr,661,90,1,1,1,0.0,--,--,--,--,--
120,1200,1920,49,.75,1.5,0.75,False,,male,test2,fr,662,90,1,0,1,0.0,--,--,--,--,--
120,1200,1920,49,.75,1.5,0.75,False,,male,test2,fr,663,90,2,0,1,0.0,--,--,--,--,--
120,1200,1920,49,.75,1.5,0.75,False,,male,test2,fr,664,90,1,1,1,0.0,--,--,--,--,--
120,1200,1920,49,.75,1.5,0.75,False,,male,test2,fr,665,90,1,0,1,0.0,--,--,--,--,--
120,1200,1920,49,.75,1.5,0.75,False,,male,test2,fr,666,90,2,1,1,0.0,--,--,--,--,--
120,1200,1920,49,.75,1.5,0.75,False,,male,test2,fr,667,90,2,1,1,0.0,--,--,--,--,--
120,1200,1920,49,.75,1.5,0.75,False,,male,test2,fr,668,90,1,1,1,0.0,--,--,--,--,--
120,1200,1920,49,.75,1.5,0.75,False,,male,test2,fr,669,90,1,0,1,0.0,--,--,--,--,--
120,1200,1920,49,.75,1.5,0.75,False,,male,test2,fr,670,90,2,1,1,0.0,--,--,--,--,--
120,1200,1920,49,.75,1.5,0.75,False,,male,test2,fr,671,90,1,1,1,0.0,--,--,--,--,--
120,1200,1920,49,.75,1.5,0.75,False,,male,test2,fr,672,90,1,0,1,0.0,--,--,--,--,--
120,1200,1920,49,.75,1.5,0.75,False,,male,test2,fr,673,90,1,0,1,0.0,--,--,--,--,--
120,1200,1920,49,.75,1.5,0.75,False,,male,test2,fr,674,90,2,0,1,0.0,--,--,--,--,--
120,1200,1920,49,.75,1.5,0.75,False,,male,test2,fr,675,90,2,0,1,0.0,--,--,--,--,--
120,1200,1920,49,.75,1.5,0.75,False,,male,test2,fr,676,90,1,0,1,0.0,--,--,--,--,--
120,1200,1920,49,.75,1.5,0.75,False,,male,test2,fr,677,90,1,1,1,0.0,--,--,--,--,--
120,1200,1920,49,.75,1.5,0.75,False,,male,test2,fr,678,90,1,1,1,0.0,--,--,--,--,--
120,1200,1920,49,.75,1.5,0.75,False,,male,test2,fr,679,90,1,1,1,0.0,--,--,--,--,--
120,1200,1920,49,.75,1.5,0.75,False,,male,test2,fr,680,90,2,1,1,0.0,--,--,--,--,--
120,1200,1920,49,.75,1.5,0.75,False,,male,test2,fr,681,90,2,0,1,0.0,--,--,--,--,--
120,1200,1920,49,.75,1.5,0.75,False,,male,test2,fr,682,90,1,0,1,0.0,--,--,--,--,--
120,1200,1920,49,.75,1.5,0.75,False,,male,test2,fr,683,90,2,0,1,0.0,--,--,--,--,--
120,1200,1920,49,.75,1.5,0.75,False,,male,test2,fr,684,90,2,0,1,0.0,--,--,--,--,--
120,1200,1920,49,.75,1.5,0.75,False,,male,test2,fr,685,90,2,0,1,0.0,--,--,--,--,--
120,1200,1920,49,.75,1.5,0.75,False,,male,test2,fr,686,90,2,1,1,0.0,--,--,--,--,--
120,1200,1920,49,.75,1.5,0.75,False,,male,test2,fr,687,90,2,0,1,0.0,--,--,--,--,--
120,1200,1920,49,.75,1.5,0.75,False,,male,test2,fr,688,90,1,1,1,0.0,--,--,--,--,--
120,1200,1920,49,.75,1.5,0.75,False,,male,test2,fr,689,90,1,0,1,0.0,--,--,--,--,--
120,1200,1920,49,.75,1.5,0.75,False,,male,test2,fr,690,90,2,1,1,0.0,--,--,--,--,--
120,1200,1920,49,.75,1.5,0.75,False,,male,test2,fr,691,90,2,1,1,0.0,--,--,--,--,--
120,1200,1920,49,.75,1.5,0.75,False,,male,test2,fr,692,90,2,1,1,0.0,--,--,--,--,--
120,1200,1920,49,.75,1.5,0.75,False,,male,test2,fr,693,90,1,0,1,0.0,--,--,--,--,--
120,1200,1920,49,.75,1.5,0.75,False,,male,test2,fr,694,90,1,1,1,0.0,--,--,--,--,--
120,1200,1920,49,.75,1.5,0.75,False,,male,test2,fr,695,90,1,1,1,0.0,--,--,--,--,--
120,1200,1920,49,.75,1.5,0.75,False,,male,test2,fr,696,90,1,0,1,0.0,--,--,--,--,--
120,1200,1920,49,.75,1.5,0.75,False,,male,test2,fr,697,90,2,0,1,0.0,--,--,--,--,--
120,1200,1920,49,.75,1.5,0.75,False,,male,test2,fr,698,90,2,1,1,0.0,--,--,--,--,--
120,1200,1920,49,.75,1.5,0.75,False,,male,test2,fr,699,90,1,1,1,0.0,--,--,--,--,--
120,1200,1920,49,.75,1.5,0.75,False,,male,test2,fr,700,90,1,1,1,0.0,--,--,--,--,--
120,1200,1920,49,.75,1.5,0.75,False,,male,test2,fr,701,90,2,1,1,0.0,--,--,--,--,--
120,1200,1920,49,.75,1.5,0.75,False,,male,test2,fr,702,90,1,1,1,0.0,--,--,--,--,--
120,1200,1920,49,.75,1.5,0.75,False,,male,test2,fr,703,90,2,1,1,0.0,--,--,--,--,--
120,1200,1920,49,.75,1.5,0.75,False,,male,test2,fr,704,90,2,1,1,0.0,--,--,--,--,--
120,1200,1920,49,.75,1.5,0.75,False,,male,test2,fr,705,90,1,1,1,0.0,--,--,--,--,--
120,1200,1920,49,.75,1.5,0.75,False,,male,test2,fr,706,90,2,1,1,0.0,--,--,--,--,--
120,1200,1920,49,.75,1.5,0.75,False,,male,test2,fr,707,90,1,0,1,0.0,--,--,--,--,--
120,1200,1920,49,.75,1.5,0.75,False,,male,test2,fr,708,90,2,1,1,0.0,--,--,--,--,--
120,1200,1920,49,.75,1.5,0.75,False,,male,test2,fr,709,90,1,1,1,0.0,--,--,--,--,--
120,1200,1920,49,.75,1.5,0.75,False,,male,test2,fr,710,90,1,0,1,0.0,--,--,--,--,--
120,1200,1920,49,.75,1.5,0.75,False,,male,test2,fr,711,90,2,1,1,0.0,--,--,--,--,--
120,1200,1920,49,.75,1.5,0.75,False,,male,test2,fr,712,90,1,0,1,0.0,--,--,--,--,--
120,1200,1920,49,.75,1.5,0.75,False,,male,test2,fr,713,90,2,0,1,0.0,--,--,--,--,--
120,1200,1920,49,.75,1.5,0.75,False,,male,test2,fr,714,90,2,1,1,0.0,--,--,--,--,--
120,1200,1920,49,.75,1.5,0.75,False,,male,test2,fr,715,90,2,1,1,0.0,--,--,--,--,--
120,1200,1920,49,.75,1.5,0.75,False,,male,test2,fr,716,90,1,0,1,0.0,--,--,--,--,--
120,1200,1920,49,.75,1.5,0.75,False,,male,test2,fr,717,90,2,0,1,0.0,--,--,--,--,--
120,1200,1920,49,.75,1.5,0.75,False,,male,test2,fr,718,90,1,1,1,0.0,--,--,--,--,--
120,1200,1920,49,.75,1.5,0.75,False,,male,test2,fr,719,90,2,0,1,0.0,--,--,--,--,--
120,1200,1920,49,.75,1.5,0.75,False,,male,test2,fr,720,90,1,0,1,0.0,--,--,--,--,--
﻿refreshrate(hz),screenresolutionvert(pixels),screenresolutionhori(pixels),screenwidth(cm),color_text,eccentricity,Stim_size,left-handed,age,gender,participant,language,TrialNumber,bgori,staircase,targetloc,cond,ran,order,resp,rt,acc,contrast
120,1200,1920,49,.75,1.5,0.75,False,,male,test2,fr,1,361,2,0,3,1.0,0.0,1.0,0.7005353,0.0,0.011410550312757525
120,1200,1920,49,.75,1.5,0.75,False,,male,test2,fr,2,361,2,0,3,1.0,1.0,0.0,0.377659,1.0,0.03193728503137525
120,1200,1920,49,.75,1.5,0.75,False,,male,test2,fr,3,361,2,1,3,1.0,2.0,1.0,0.2726901,1.0,0.025185242205390552
120,1200,1920,49,.75,1.5,0.75,False,,male,test2,fr,4,361,2,0,3,1.0,3.0,0.0,0.276342,1.0,0.020662660803773863
120,1200,1920,49,.75,1.5,0.75,False,,male,test2,fr,5,361,2,0,3,1.0,4.0,0.0,0.3951758,1.0,0.017636741035637882
120,1200,1920,49,.75,1.5,0.75,False,,male,test2,fr,6,361,1,1,3,1.0,5.0,0.0,0.5907197,0.0,0.011410550312757525
120,1200,1920,49,.75,1.5,0.75,False,,male,test2,fr,7,361,1,1,3,1.0,6.0,1.0,0.3471801,1.0,0.03193728503137525
120,1200,1920,49,.75,1.5,0.75,False,,male,test2,fr,8,361,2,0,3,1.0,7.0,0.0,0.3907367,1.0,0.015053948632856707
120,1200,1920,49,.75,1.5,0.75,False,,male,test2,fr,9,361,1,0,3,1.0,8.0,0.0,0.4359788,1.0,0.025185242205390552
120,1200,1920,49,.75,1.5,0.75,False,,male,test2,fr,10,361,1,0,3,1.0,9.0,0.0,0.7290318,1.0,0.020662660803773863
120,1200,1920,49,.75,1.5,0.75,False,,male,test2,fr,11,361,2,1,3,1.0,10.0,1.0,1.3725209,1.0,0.009934240517826544
120,1200,1920,49,.75,1.5,0.75,False,,male,test2,fr,12,361,2,1,3,1.0,11.0,0.0,0.6102587,0.0,0.00882183111215549
120,1200,1920,49,.75,1.5,0.75,False,,male,test2,fr,13,361,1,1,3,1.0,12.0,1.0,0.3422496,1.0,0.017636741035637882
120,1200,1920,49,.75,1.5,0.75,False,,male,test2,fr,14,361,1,1,3,1.0,13.0,1.0,0.2687839,1.0,0.015053948632856707
120,1200,1920,49,.75,1.5,0.75,False,,male,test2,fr,15,361,1,0,3,1.0,14.0,0.0,0.3945468,1.0,0.009934240517826544
120,1200,1920,49,.75,1.5,0.75,False,,male,test2,fr,16,361,1,0,3,1.0,15.0,0.0,0.448446,1.0,0.00882183111215549
120,1200,1920,49,.75,1.5,0.75,False,,male,test2,fr,17,361,2,1,3,1.0,16.0,1.0,0.2998897,1.0,0.015974909092232634
120,1200,1920,49,.75,1.5,0.75,False,,male,test2,fr,18,361,1,0,3,1.0,17.0,0.0,0.4966535,1.0,0.007237671270027853
120,1200,1920,49,.75,1.5,0.75,False,,male,test2,fr,19,361,2,0,3,1.0,18.0,0.0,0.5230337,1.0,0.014758915330012263
120,1200,1920,49,.75,1.5,0.75,False,,male,test2,fr,20,361,2,0,3,0.0,--,--,--,--,--
120,1200,1920,49,.75,1.5,0.75,False,,male,test2,fr,21,361,1,0,3,0.0,--,--,--,--,--
120,1200,1920,49,.75,1.5,0.75,False,,male,test2,fr,22,361,1,1,3,0.0,--,--,--,--,--
120,1200,1920,49,.75,1.5,0.75,False,,male,test2,fr,23,361,1,0,3,0.0,--,--,--,--,--
120,1200,1920,49,.75,1.5,0.75,False,,male,test2,fr,24,361,2,0,3,0.0,--,--,--,--,--
120,1200,1920,49,.75,1.5,0.75,False,,male,test2,fr,25,361,2,1,3,0.0,--,--,--,--,--
120,1200,1920,49,.75,1.5,0.75,False,,male,test2,fr,26,361,2,0,3,0.0,--,--,--,--,--
120,1200,1920,49,.75,1.5,0.75,False,,male,test2,fr,27,361,1,1,3,0.0,--,--,--,--,--
120,1200,1920,49,.75,1.5,0.75,False,,male,test2,fr,28,361,1,1,3,0.0,--,--,--,--,--
120,1200,1920,49,.75,1.5,0.75,False,,male,test2,fr,29,361,2,1,3,0.0,--,--,--,--,--
120,1200,1920,49,.75,1.5,0.75,False,,male,test2,fr,30,361,2,0,3,0.0,--,--,--,--,--
120,1200,1920,49,.75,1.5,0.75,False,,male,test2,fr,31,361,1,0,3,0.0,--,--,--,--,--
120,1200,1920,49,.75,1.5,0.75,False,,male,test2,fr,32,361,1,1,3,0.0,--,--,--,--,--
120,1200,1920,49,.75,1.5,0.75,False,,male,test2,fr,33,361,1,1,3,0.0,--,--,--,--,--
120,1200,1920,49,.75,1.5,0.75,False,,male,test2,fr,34,361,1,0,3,0.0,--,--,--,--,--
120,1200,1920,49,.75,1.5,0.75,False,,male,test2,fr,35,361,1,1,3,0.0,--,--,--,--,--
120,1200,1920,49,.75,1.5,0.75,False,,male,test2,fr,36,361,2,1,3,0.0,--,--,--,--,--
120,1200,1920,49,.75,1.5,0.75,False,,male,test2,fr,37,361,2,0,3,0.0,--,--,--,--,--
120,1200,1920,49,.75,1.5,0.75,False,,male,test2,fr,38,361,1,0,3,0.0,--,--,--,--,--
120,1200,1920,49,.75,1.5,0.75,False,,male,test2,fr,39,361,2,0,3,0.0,--,--,--,--,--
120,1200,1920,49,.75,1.5,0.75,False,,male,test2,fr,40,361,1,0,3,0.0,--,--,--,--,--
120,1200,1920,49,.75,1.5,0.75,False,,male,test2,fr,41,361,2,1,3,0.0,--,--,--,--,--
120,1200,1920,49,.75,1.5,0.75,False,,male,test2,fr,42,361,2,1,3,0.0,--,--,--,--,--
120,1200,1920,49,.75,1.5,0.75,False,,male,test2,fr,43,361,2,1,3,0.0,--,--,--,--,--
120,1200,1920,49,.75,1.5,0.75,False,,male,test2,fr,44,361,1,0,3,0.0,--,--,--,--,--
120,1200,1920,49,.75,1.5,0.75,False,,male,test2,fr,45,361,1,1,3,0.0,--,--,--,--,--
120,1200,1920,49,.75,1.5,0.75,False,,male,test2,fr,46,361,1,1,3,0.0,--,--,--,--,--
120,1200,1920,49,.75,1.5,0.75,False,,male,test2,fr,47,361,1,1,3,0.0,--,--,--,--,--
120,1200,1920,49,.75,1.5,0.75,False,,male,test2,fr,48,361,1,0,3,0.0,--,--,--,--,--
120,1200,1920,49,.75,1.5,0.75,False,,male,test2,fr,49,361,1,0,3,0.0,--,--,--,--,--
120,1200,1920,49,.75,1.5,0.75,False,,male,test2,fr,50,361,1,1,3,0.0,--,--,--,--,--
120,1200,1920,49,.75,1.5,0.75,False,,male,test2,fr,51,361,2,0,3,0.0,--,--,--,--,--
120,1200,1920,49,.75,1.5,0.75,False,,male,test2,fr,52,361,2,1,3,0.0,--,--,--,--,--
120,1200,1920,49,.75,1.5,0.75,False,,male,test2,fr,53,361,1,1,3,0.0,--,--,--,--,--
120,1200,1920,49,.75,1.5,0.75,False,,male,test2,fr,54,361,1,1,3,0.0,--,--,--,--,--
120,1200,1920,49,.75,1.5,0.75,False,,male,test2,fr,55,361,1,0,3,0.0,--,--,--,--,--
120,1200,1920,49,.75,1.5,0.75,False,,male,test2,fr,56,361,2,0,3,0.0,--,--,--,--,--
120,1200,1920,49,.75,1.5,0.75,False,,male,test2,fr,57,361,2,1,3,0.0,--,--,--,--,--
120,1200,1920,49,.75,1.5,0.75,False,,male,test2,fr,58,361,1,1,3,0.0,--,--,--,--,--
120,1200,1920,49,.75,1.5,0.75,False,,male,test2,fr,59,361,2,1,3,0.0,--,--,--,--,--
120,1200,1920,49,.75,1.5,0.75,False,,male,test2,fr,60,361,2,1,3,0.0,--,--,--,--,--
120,1200,1920,49,.75,1.5,0.75,False,,male,test2,fr,61,361,2,0,3,0.0,--,--,--,--,--
120,1200,1920,49,.75,1.5,0.75,False,,male,test2,fr,62,361,1,0,3,0.0,--,--,--,--,--
120,1200,1920,49,.75,1.5,0.75,False,,male,test2,fr,63,361,2,0,3,0.0,--,--,--,--,--
120,1200,1920,49,.75,1.5,0.75,False,,male,test2,fr,64,361,2,1,3,0.0,--,--,--,--,--
120,1200,1920,49,.75,1.5,0.75,False,,male,test2,fr,65,361,1,0,3,0.0,--,--,--,--,--
120,1200,1920,49,.75,1.5,0.75,False,,male,test2,fr,66,361,2,1,3,0.0,--,--,--,--,--
120,1200,1920,49,.75,1.5,0.75,False,,male,test2,fr,67,361,2,0,3,0.0,--,--,--,--,--
120,1200,1920,49,.75,1.5,0.75,False,,male,test2,fr,68,361,2,1,3,0.0,--,--,--,--,--
120,1200,1920,49,.75,1.5,0.75,False,,male,test2,fr,69,361,1,1,3,0.0,--,--,--,--,--
120,1200,1920,49,.75,1.5,0.75,False,,male,test2,fr,70,361,1,0,3,0.0,--,--,--,--,--
120,1200,1920,49,.75,1.5,0.75,False,,male,test2,fr,71,361,2,1,3,0.0,--,--,--,--,--
120,1200,1920,49,.75,1.5,0.75,False,,male,test2,fr,72,361,2,0,3,0.0,--,--,--,--,--
120,1200,1920,49,.75,1.5,0.75,False,,male,test2,fr,73,361,2,0,3,0.0,--,--,--,--,--
120,1200,1920,49,.75,1.5,0.75,False,,male,test2,fr,74,361,2,1,3,0.0,--,--,--,--,--
120,1200,1920,49,.75,1.5,0.75,False,,male,test2,fr,75,361,1,0,3,0.0,--,--,--,--,--
120,1200,1920,49,.75,1.5,0.75,False,,male,test2,fr,76,361,2,0,3,0.0,--,--,--,--,--
120,1200,1920,49,.75,1.5,0.75,False,,male,test2,fr,77,361,2,1,3,0.0,--,--,--,--,--
120,1200,1920,49,.75,1.5,0.75,False,,male,test2,fr,78,361,1,0,3,0.0,--,--,--,--,--
120,1200,1920,49,.75,1.5,0.75,False,,male,test2,fr,79,361,1,1,3,0.0,--,--,--,--,--
120,1200,1920,49,.75,1.5,0.75,False,,male,test2,fr,80,361,1,1,3,0.0,--,--,--,--,--
120,1200,1920,49,.75,1.5,0.75,False,,male,test2,fr,81,90,2,0,1,0.0,--,--,--,--,--
120,1200,1920,49,.75,1.5,0.75,False,,male,test2,fr,82,90,2,0,1,0.0,--,--,--,--,--
120,1200,1920,49,.75,1.5,0.75,False,,male,test2,fr,83,90,1,1,1,0.0,--,--,--,--,--
120,1200,1920,49,.75,1.5,0.75,False,,male,test2,fr,84,90,2,0,1,0.0,--,--,--,--,--
120,1200,1920,49,.75,1.5,0.75,False,,male,test2,fr,85,90,2,1,1,0.0,--,--,--,--,--
120,1200,1920,49,.75,1.5,0.75,False,,male,test2,fr,86,90,1,1,1,0.0,--,--,--,--,--
120,1200,1920,49,.75,1.5,0.75,False,,male,test2,fr,87,90,2,0,1,0.0,--,--,--,--,--
120,1200,1920,49,.75,1.5,0.75,False,,male,test2,fr,88,90,2,0,1,0.0,--,--,--,--,--
120,1200,1920,49,.75,1.5,0.75,False,,male,test2,fr,89,90,1,1,1,0.0,--,--,--,--,--
120,1200,1920,49,.75,1.5,0.75,False,,male,test2,fr,90,90,2,0,1,0.0,--,--,--,--,--
120,1200,1920,49,.75,1.5,0.75,False,,male,test2,fr,91,90,1,0,1,0.0,--,--,--,--,--
120,1200,1920,49,.75,1.5,0.75,False,,male,test2,fr,92,90,1,0,1,0.0,--,--,--,--,--
120,1200,1920,49,.75,1.5,0.75,False,,male,test2,fr,93,90,1,0,1,0.0,--,--,--,--,--
120,1200,1920,49,.75,1.5,0.75,False,,male,test2,fr,94,90,1,1,1,0.0,--,--,--,--,--
120,1200,1920,49,.75,1.5,0.75,False,,male,test2,fr,95,90,2,0,1,0.0,--,--,--,--,--
120,1200,1920,49,.75,1.5,0.75,False,,male,test2,fr,96,90,2,1,1,0.0,--,--,--,--,--
120,1200,1920,49,.75,1.5,0.75,False,,male,test2,fr,97,90,2,1,1,0.0,--,--,--,--,--
120,1200,1920,49,.75,1.5,0.75,False,,male,test2,fr,98,90,2,0,1,0.0,--,--,--,--,--
120,1200,1920,49,.75,1.5,0.75,False,,male,test2,fr,99,90,1,0,1,0.0,--,--,--,--,--
120,1200,1920,49,.75,1.5,0.75,False,,male,test2,fr,100,90,1,0,1,0.0,--,--,--,--,--
120,1200,1920,49,.75,1.5,0.75,False,,male,test2,fr,101,90,1,1,1,0.0,--,--,--,--,--
120,1200,1920,49,.75,1.5,0.75,False,,male,test2,fr,102,90,1,0,1,0.0,--,--,--,--,--
120,1200,1920,49,.75,1.5,0.75,False,,male,test2,fr,103,90,2,0,1,0.0,--,--,--,--,--
120,1200,1920,49,.75,1.5,0.75,False,,male,test2,fr,104,90,1,1,1,0.0,--,--,--,--,--
120,1200,1920,49,.75,1.5,0.75,False,,male,test2,fr,105,90,1,0,1,0.0,--,--,--,--,--
120,1200,1920,49,.75,1.5,0.75,False,,male,test2,fr,106,90,2,1,1,0.0,--,--,--,--,--
120,1200,1920,49,.75,1.5,0.75,False,,male,test2,fr,107,90,2,1,1,0.0,--,--,--,--,--
120,1200,1920,49,.75,1.5,0.75,False,,male,test2,fr,108,90,1,1,1,0.0,--,--,--,--,--
120,1200,1920,49,.75,1.5,0.75,False,,male,test2,fr,109,90,1,0,1,0.0,--,--,--,--,--
120,1200,1920,49,.75,1.5,0.75,False,,male,test2,fr,110,90,2,1,1,0.0,--,--,--,--,--
120,1200,1920,49,.75,1.5,0.75,False,,male,test2,fr,111,90,1,1,1,0.0,--,--,--,--,--
120,1200,1920,49,.75,1.5,0.75,False,,male,test2,fr,112,90,1,0,1,0.0,--,--,--,--,--
120,1200,1920,49,.75,1.5,0.75,False,,male,test2,fr,113,90,1,0,1,0.0,--,--,--,--,--
120,1200,1920,49,.75,1.5,0.75,False,,male,test2,fr,114,90,2,0,1,0.0,--,--,--,--,--
120,1200,1920,49,.75,1.5,0.75,False,,male,test2,fr,115,90,2,0,1,0.0,--,--,--,--,--
120,1200,1920,49,.75,1.5,0.75,False,,male,test2,fr,116,90,1,0,1,0.0,--,--,--,--,--
120,1200,1920,49,.75,1.5,0.75,False,,male,test2,fr,117,90,1,1,1,0.0,--,--,--,--,--
120,1200,1920,49,.75,1.5,0.75,False,,male,test2,fr,118,90,1,1,1,0.0,--,--,--,--,--
120,1200,1920,49,.75,1.5,0.75,False,,male,test2,fr,119,90,1,1,1,0.0,--,--,--,--,--
120,1200,1920,49,.75,1.5,0.75,False,,male,test2,fr,120,90,2,1,1,0.0,--,--,--,--,--
120,1200,1920,49,.75,1.5,0.75,False,,male,test2,fr,121,90,2,0,1,0.0,--,--,--,--,--
120,1200,1920,49,.75,1.5,0.75,False,,male,test2,fr,122,90,1,0,1,0.0,--,--,--,--,--
120,1200,1920,49,.75,1.5,0.75,False,,male,test2,fr,123,90,2,0,1,0.0,--,--,--,--,--
120,1200,1920,49,.75,1.5,0.75,False,,male,test2,fr,124,90,2,0,1,0.0,--,--,--,--,--
120,1200,1920,49,.75,1.5,0.75,False,,male,test2,fr,125,90,2,0,1,0.0,--,--,--,--,--
120,1200,1920,49,.75,1.5,0.75,False,,male,test2,fr,126,90,2,1,1,0.0,--,--,--,--,--
120,1200,1920,49,.75,1.5,0.75,False,,male,test2,fr,127,90,2,0,1,0.0,--,--,--,--,--
120,1200,1920,49,.75,1.5,0.75,False,,male,test2,fr,128,90,1,1,1,0.0,--,--,--,--,--
120,1200,1920,49,.75,1.5,0.75,False,,male,test2,fr,129,90,1,0,1,0.0,--,--,--,--,--
120,1200,1920,49,.75,1.5,0.75,False,,male,test2,fr,130,90,2,1,1,0.0,--,--,--,--,--
120,1200,1920,49,.75,1.5,0.75,False,,male,test2,fr,131,90,2,1,1,0.0,--,--,--,--,--
120,1200,1920,49,.75,1.5,0.75,False,,male,test2,fr,132,90,2,1,1,0.0,--,--,--,--,--
120,1200,1920,49,.75,1.5,0.75,False,,male,test2,fr,133,90,1,0,1,0.0,--,--,--,--,--
120,1200,1920,49,.75,1.5,0.75,False,,male,test2,fr,134,90,1,1,1,0.0,--,--,--,--,--
120,1200,1920,49,.75,1.5,0.75,False,,male,test2,fr,135,90,1,1,1,0.0,--,--,--,--,--
120,1200,1920,49,.75,1.5,0.75,False,,male,test2,fr,136,90,1,0,1,0.0,--,--,--,--,--
120,1200,1920,49,.75,1.5,0.75,False,,male,test2,fr,137,90,2,0,1,0.0,--,--,--,--,--
120,1200,1920,49,.75,1.5,0.75,False,,male,test2,fr,138,90,2,1,1,0.0,--,--,--,--,--
120,1200,1920,49,.75,1.5,0.75,False,,male,test2,fr,139,90,1,1,1,0.0,--,--,--,--,--
120,1200,1920,49,.75,1.5,0.75,False,,male,test2,fr,140,90,1,1,1,0.0,--,--,--,--,--
120,1200,1920,49,.75,1.5,0.75,False,,male,test2,fr,141,90,2,1,1,0.0,--,--,--,--,--
120,1200,1920,49,.75,1.5,0.75,False,,male,test2,fr,142,90,1,1,1,0.0,--,--,--,--,--
120,1200,1920,49,.75,1.5,0.75,False,,male,test2,fr,143,90,2,1,1,0.0,--,--,--,--,--
120,1200,1920,49,.75,1.5,0.75,False,,male,test2,fr,144,90,2,1,1,0.0,--,--,--,--,--
120,1200,1920,49,.75,1.5,0.75,False,,male,test2,fr,145,90,1,1,1,0.0,--,--,--,--,--
120,1200,1920,49,.75,1.5,0.75,False,,male,test2,fr,146,90,2,1,1,0.0,--,--,--,--,--
120,1200,1920,49,.75,1.5,0.75,False,,male,test2,fr,147,90,1,0,1,0.0,--,--,--,--,--
120,1200,1920,49,.75,1.5,0.75,False,,male,test2,fr,148,90,2,1,1,0.0,--,--,--,--,--
120,1200,1920,49,.75,1.5,0.75,False,,male,test2,fr,149,90,1,1,1,0.0,--,--,--,--,--
120,1200,1920,49,.75,1.5,0.75,False,,male,test2,fr,150,90,1,0,1,0.0,--,--,--,--,--
120,1200,1920,49,.75,1.5,0.75,False,,male,test2,fr,151,90,2,1,1,0.0,--,--,--,--,--
120,1200,1920,49,.75,1.5,0.75,False,,male,test2,fr,152,90,1,0,1,0.0,--,--,--,--,--
120,1200,1920,49,.75,1.5,0.75,False,,male,test2,fr,153,90,2,0,1,0.0,--,--,--,--,--
120,1200,1920,49,.75,1.5,0.75,False,,male,test2,fr,154,90,2,1,1,0.0,--,--,--,--,--
120,1200,1920,49,.75,1.5,0.75,False,,male,test2,fr,155,90,2,1,1,0.0,--,--,--,--,--
120,1200,1920,49,.75,1.5,0.75,False,,male,test2,fr,156,90,1,0,1,0.0,--,--,--,--,--
120,1200,1920,49,.75,1.5,0.75,False,,male,test2,fr,157,90,2,0,1,0.0,--,--,--,--,--
120,1200,1920,49,.75,1.5,0.75,False,,male,test2,fr,158,90,1,1,1,0.0,--,--,--,--,--
120,1200,1920,49,.75,1.5,0.75,False,,male,test2,fr,159,90,2,0,1,0.0,--,--,--,--,--
120,1200,1920,49,.75,1.5,0.75,False,,male,test2,fr,160,90,1,0,1,0.0,--,--,--,--,--
120,1200,1920,49,.75,1.5,0.75,False,,male,test2,fr,161,0,1,0,2,0.0,--,--,--,--,--
120,1200,1920,49,.75,1.5,0.75,False,,male,test2,fr,162,0,1,0,2,0.0,--,--,--,--,--
120,1200,1920,49,.75,1.5,0.75,False,,male,test2,fr,163,0,1,0,2,0.0,--,--,--,--,--
120,1200,1920,49,.75,1.5,0.75,False,,male,test2,fr,164,0,2,0,2,0.0,--,--,--,--,--
120,1200,1920,49,.75,1.5,0.75,False,,male,test2,fr,165,0,1,0,2,0.0,--,--,--,--,--
120,1200,1920,49,.75,1.5,0.75,False,,male,test2,fr,166,0,1,1,2,0.0,--,--,--,--,--
120,1200,1920,49,.75,1.5,0.75,False,,male,test2,fr,167,0,2,0,2,0.0,--,--,--,--,--
120,1200,1920,49,.75,1.5,0.75,False,,male,test2,fr,168,0,1,1,2,0.0,--,--,--,--,--
120,1200,1920,49,.75,1.5,0.75,False,,male,test2,fr,169,0,1,0,2,0.0,--,--,--,--,--
120,1200,1920,49,.75,1.5,0.75,False,,male,test2,fr,170,0,2,0,2,0.0,--,--,--,--,--
120,1200,1920,49,.75,1.5,0.75,False,,male,test2,fr,171,0,1,1,2,0.0,--,--,--,--,--
120,1200,1920,49,.75,1.5,0.75,False,,male,test2,fr,172,0,1,1,2,0.0,--,--,--,--,--
120,1200,1920,49,.75,1.5,0.75,False,,male,test2,fr,173,0,2,0,2,0.0,--,--,--,--,--
120,1200,1920,49,.75,1.5,0.75,False,,male,test2,fr,174,0,2,0,2,0.0,--,--,--,--,--
120,1200,1920,49,.75,1.5,0.75,False,,male,test2,fr,175,0,2,1,2,0.0,--,--,--,--,--
120,1200,1920,49,.75,1.5,0.75,False,,male,test2,fr,176,0,1,0,2,0.0,--,--,--,--,--
120,1200,1920,49,.75,1.5,0.75,False,,male,test2,fr,177,0,1,0,2,0.0,--,--,--,--,--
120,1200,1920,49,.75,1.5,0.75,False,,male,test2,fr,178,0,1,0,2,0.0,--,--,--,--,--
120,1200,1920,49,.75,1.5,0.75,False,,male,test2,fr,179,0,2,1,2,0.0,--,--,--,--,--
120,1200,1920,49,.75,1.5,0.75,False,,male,test2,fr,180,0,2,0,2,0.0,--,--,--,--,--
120,1200,1920,49,.75,1.5,0.75,False,,male,test2,fr,181,0,1,0,2,0.0,--,--,--,--,--
120,1200,1920,49,.75,1.5,0.75,False,,male,test2,fr,182,0,1,1,2,0.0,--,--,--,--,--
120,1200,1920,49,.75,1.5,0.75,False,,male,test2,fr,183,0,2,1,2,0.0,--,--,--,--,--
120,1200,1920,49,.75,1.5,0.75,False,,male,test2,fr,184,0,2,1,2,0.0,--,--,--,--,--
120,1200,1920,49,.75,1.5,0.75,False,,male,test2,fr,185,0,1,1,2,0.0,--,--,--,--,--
120,1200,1920,49,.75,1.5,0.75,False,,male,test2,fr,186,0,2,0,2,0.0,--,--,--,--,--
120,1200,1920,49,.75,1.5,0.75,False,,male,test2,fr,187,0,1,0,2,0.0,--,--,--,--,--
120,1200,1920,49,.75,1.5,0.75,False,,male,test2,fr,188,0,2,0,2,0.0,--,--,--,--,--
120,1200,1920,49,.75,1.5,0.75,False,,male,test2,fr,189,0,2,1,2,0.0,--,--,--,--,--
120,1200,1920,49,.75,1.5,0.75,False,,male,test2,fr,190,0,2,1,2,0.0,--,--,--,--,--
120,1200,1920,49,.75,1.5,0.75,False,,male,test2,fr,191,0,2,0,2,0.0,--,--,--,--,--
120,1200,1920,49,.75,1.5,0.75,False,,male,test2,fr,192,0,1,1,2,0.0,--,--,--,--,--
120,1200,1920,49,.75,1.5,0.75,False,,male,test2,fr,193,0,1,1,2,0.0,--,--,--,--,--
120,1200,1920,49,.75,1.5,0.75,False,,male,test2,fr,194,0,2,1,2,0.0,--,--,--,--,--
120,1200,1920,49,.75,1.5,0.75,False,,male,test2,fr,195,0,1,0,2,0.0,--,--,--,--,--
120,1200,1920,49,.75,1.5,0.75,False,,male,test2,fr,196,0,1,1,2,0.0,--,--,--,--,--
120,1200,1920,49,.75,1.5,0.75,False,,male,test2,fr,197,0,1,0,2,0.0,--,--,--,--,--
120,1200,1920,49,.75,1.5,0.75,False,,male,test2,fr,198,0,2,1,2,0.0,--,--,--,--,--
120,1200,1920,49,.75,1.5,0.75,False,,male,test2,fr,199,0,2,1,2,0.0,--,--,--,--,--
120,1200,1920,49,.75,1.5,0.75,False,,male,test2,fr,200,0,2,1,2,0.0,--,--,--,--,--
120,1200,1920,49,.75,1.5,0.75,False,,male,test2,fr,201,0,1,1,2,0.0,--,--,--,--,--
120,1200,1920,49,.75,1.5,0.75,False,,male,test2,fr,202,0,2,1,2,0.0,--,--,--,--,--
120,1200,1920,49,.75,1.5,0.75,False,,male,test2,fr,203,0,1,0,2,0.0,--,--,--,--,--
120,1200,1920,49,.75,1.5,0.75,False,,male,test2,fr,204,0,2,1,2,0.0,--,--,--,--,--
120,1200,1920,49,.75,1.5,0.75,False,,male,test2,fr,205,0,2,0,2,0.0,--,--,--,--,--
120,1200,1920,49,.75,1.5,0.75,False,,male,test2,fr,206,0,2,1,2,0.0,--,--,--,--,--
120,1200,1920,49,.75,1.5,0.75,False,,male,test2,fr,207,0,2,1,2,0.0,--,--,--,--,--
120,1200,1920,49,.75,1.5,0.75,False,,male,test2,fr,208,0,1,0,2,0.0,--,--,--,--,--
120,1200,1920,49,.75,1.5,0.75,False,,male,test2,fr,209,0,2,0,2,0.0,--,--,--,--,--
120,1200,1920,49,.75,1.5,0.75,False,,male,test2,fr,210,0,2,0,2,0.0,--,--,--,--,--
120,1200,1920,49,.75,1.5,0.75,False,,male,test2,fr,211,0,2,1,2,0.0,--,--,--,--,--
120,1200,1920,49,.75,1.5,0.75,False,,male,test2,fr,212,0,2,1,2,0.0,--,--,--,--,--
120,1200,1920,49,.75,1.5,0.75,False,,male,test2,fr,213,0,1,1,2,0.0,--,--,--,--,--
120,1200,1920,49,.75,1.5,0.75,False,,male,test2,fr,214,0,1,1,2,0.0,--,--,--,--,--
120,1200,1920,49,.75,1.5,0.75,False,,male,test2,fr,215,0,1,1,2,0.0,--,--,--,--,--
120,1200,1920,49,.75,1.5,0.75,False,,male,test2,fr,216,0,2,0,2,0.0,--,--,--,--,--
120,1200,1920,49,.75,1.5,0.75,False,,male,test2,fr,217,0,1,0,2,0.0,--,--,--,--,--
120,1200,1920,49,.75,1.5,0.75,False,,male,test2,fr,218,0,1,0,2,0.0,--,--,--,--,--
120,1200,1920,49,.75,1.5,0.75,False,,male,test2,fr,219,0,1,0,2,0.0,--,--,--,--,--
120,1200,1920,49,.75,1.5,0.75,False,,male,test2,fr,220,0,2,0,2,0.0,--,--,--,--,--
120,1200,1920,49,.75,1.5,0.75,False,,male,test2,fr,221,0,1,1,2,0.0,--,--,--,--,--
120,1200,1920,49,.75,1.5,0.75,False,,male,test2,fr,222,0,1,1,2,0.0,--,--,--,--,--
120,1200,1920,49,.75,1.5,0.75,False,,male,test2,fr,223,0,2,1,2,0.0,--,--,--,--,--
120,1200,1920,49,.75,1.5,0.75,False,,male,test2,fr,224,0,2,1,2,0.0,--,--,--,--,--
120,1200,1920,49,.75,1.5,0.75,False,,male,test2,fr,225,0,1,1,2,0.0,--,--,--,--,--
120,1200,1920,49,.75,1.5,0.75,False,,male,test2,fr,226,0,2,0,2,0.0,--,--,--,--,--
120,1200,1920,49,.75,1.5,0.75,False,,male,test2,fr,227,0,1,1,2,0.0,--,--,--,--,--
120,1200,1920,49,.75,1.5,0.75,False,,male,test2,fr,228,0,1,1,2,0.0,--,--,--,--,--
120,1200,1920,49,.75,1.5,0.75,False,,male,test2,fr,229,0,1,1,2,0.0,--,--,--,--,--
120,1200,1920,49,.75,1.5,0.75,False,,male,test2,fr,230,0,1,0,2,0.0,--,--,--,--,--
120,1200,1920,49,.75,1.5,0.75,False,,male,test2,fr,231,0,2,0,2,0.0,--,--,--,--,--
120,1200,1920,49,.75,1.5,0.75,False,,male,test2,fr,232,0,1,0,2,0.0,--,--,--,--,--
120,1200,1920,49,.75,1.5,0.75,False,,male,test2,fr,233,0,2,1,2,0.0,--,--,--,--,--
120,1200,1920,49,.75,1.5,0.75,False,,male,test2,fr,234,0,2,0,2,0.0,--,--,--,--,--
120,1200,1920,49,.75,1.5,0.75,False,,male,test2,fr,235,0,1,0,2,0.0,--,--,--,--,--
120,1200,1920,49,.75,1.5,0.75,False,,male,test2,fr,236,0,1,1,2,0.0,--,--,--,--,--
120,1200,1920,49,.75,1.5,0.75,False,,male,test2,fr,237,0,2,0,2,0.0,--,--,--,--,--
120,1200,1920,49,.75,1.5,0.75,False,,male,test2,fr,238,0,2,1,2,0.0,--,--,--,--,--
120,1200,1920,49,.75,1.5,0.75,False,,male,test2,fr,239,0,2,0,2,0.0,--,--,--,--,--
120,1200,1920,49,.75,1.5,0.75,False,,male,test2,fr,240,0,2,0,2,0.0,--,--,--,--,--
120,1200,1920,49,.75,1.5,0.75,False,,male,test2,fr,241,90,2,0,1,0.0,--,--,--,--,--
120,1200,1920,49,.75,1.5,0.75,False,,male,test2,fr,242,90,2,0,1,0.0,--,--,--,--,--
120,1200,1920,49,.75,1.5,0.75,False,,male,test2,fr,243,90,1,1,1,0.0,--,--,--,--,--
120,1200,1920,49,.75,1.5,0.75,False,,male,test2,fr,244,90,2,0,1,0.0,--,--,--,--,--
120,1200,1920,49,.75,1.5,0.75,False,,male,test2,fr,245,90,2,1,1,0.0,--,--,--,--,--
120,1200,1920,49,.75,1.5,0.75,False,,male,test2,fr,246,90,1,1,1,0.0,--,--,--,--,--
120,1200,1920,49,.75,1.5,0.75,False,,male,test2,fr,247,90,2,0,1,0.0,--,--,--,--,--
120,1200,1920,49,.75,1.5,0.75,False,,male,test2,fr,248,90,2,0,1,0.0,--,--,--,--,--
120,1200,1920,49,.75,1.5,0.75,False,,male,test2,fr,249,90,1,1,1,0.0,--,--,--,--,--
120,1200,1920,49,.75,1.5,0.75,False,,male,test2,fr,250,90,2,0,1,0.0,--,--,--,--,--
120,1200,1920,49,.75,1.5,0.75,False,,male,test2,fr,251,90,1,0,1,0.0,--,--,--,--,--
120,1200,1920,49,.75,1.5,0.75,False,,male,test2,fr,252,90,1,0,1,0.0,--,--,--,--,--
120,1200,1920,49,.75,1.5,0.75,False,,male,test2,fr,253,90,1,0,1,0.0,--,--,--,--,--
120,1200,1920,49,.75,1.5,0.75,False,,male,test2,fr,254,90,1,1,1,0.0,--,--,--,--,--
120,1200,1920,49,.75,1.5,0.75,False,,male,test2,fr,255,90,2,0,1,0.0,--,--,--,--,--
120,1200,1920,49,.75,1.5,0.75,False,,male,test2,fr,256,90,2,1,1,0.0,--,--,--,--,--
120,1200,1920,49,.75,1.5,0.75,False,,male,test2,fr,257,90,2,1,1,0.0,--,--,--,--,--
120,1200,1920,49,.75,1.5,0.75,False,,male,test2,fr,258,90,2,0,1,0.0,--,--,--,--,--
120,1200,1920,49,.75,1.5,0.75,False,,male,test2,fr,259,90,1,0,1,0.0,--,--,--,--,--
120,1200,1920,49,.75,1.5,0.75,False,,male,test2,fr,260,90,1,0,1,0.0,--,--,--,--,--
120,1200,1920,49,.75,1.5,0.75,False,,male,test2,fr,261,90,1,1,1,0.0,--,--,--,--,--
120,1200,1920,49,.75,1.5,0.75,False,,male,test2,fr,262,90,1,0,1,0.0,--,--,--,--,--
120,1200,1920,49,.75,1.5,0.75,False,,male,test2,fr,263,90,2,0,1,0.0,--,--,--,--,--
120,1200,1920,49,.75,1.5,0.75,False,,male,test2,fr,264,90,1,1,1,0.0,--,--,--,--,--
120,1200,1920,49,.75,1.5,0.75,False,,male,test2,fr,265,90,1,0,1,0.0,--,--,--,--,--
120,1200,1920,49,.75,1.5,0.75,False,,male,test2,fr,266,90,2,1,1,0.0,--,--,--,--,--
120,1200,1920,49,.75,1.5,0.75,False,,male,test2,fr,267,90,2,1,1,0.0,--,--,--,--,--
120,1200,1920,49,.75,1.5,0.75,False,,male,test2,fr,268,90,1,1,1,0.0,--,--,--,--,--
120,1200,1920,49,.75,1.5,0.75,False,,male,test2,fr,269,90,1,0,1,0.0,--,--,--,--,--
120,1200,1920,49,.75,1.5,0.75,False,,male,test2,fr,270,90,2,1,1,0.0,--,--,--,--,--
120,1200,1920,49,.75,1.5,0.75,False,,male,test2,fr,271,90,1,1,1,0.0,--,--,--,--,--
120,1200,1920,49,.75,1.5,0.75,False,,male,test2,fr,272,90,1,0,1,0.0,--,--,--,--,--
120,1200,1920,49,.75,1.5,0.75,False,,male,test2,fr,273,90,1,0,1,0.0,--,--,--,--,--
120,1200,1920,49,.75,1.5,0.75,False,,male,test2,fr,274,90,2,0,1,0.0,--,--,--,--,--
120,1200,1920,49,.75,1.5,0.75,False,,male,test2,fr,275,90,2,0,1,0.0,--,--,--,--,--
120,1200,1920,49,.75,1.5,0.75,False,,male,test2,fr,276,90,1,0,1,0.0,--,--,--,--,--
120,1200,1920,49,.75,1.5,0.75,False,,male,test2,fr,277,90,1,1,1,0.0,--,--,--,--,--
120,1200,1920,49,.75,1.5,0.75,False,,male,test2,fr,278,90,1,1,1,0.0,--,--,--,--,--
120,1200,1920,49,.75,1.5,0.75,False,,male,test2,fr,279,90,1,1,1,0.0,--,--,--,--,--
120,1200,1920,49,.75,1.5,0.75,False,,male,test2,fr,280,90,2,1,1,0.0,--,--,--,--,--
120,1200,1920,49,.75,1.5,0.75,False,,male,test2,fr,281,90,2,0,1,0.0,--,--,--,--,--
120,1200,1920,49,.75,1.5,0.75,False,,male,test2,fr,282,90,1,0,1,0.0,--,--,--,--,--
120,1200,1920,49,.75,1.5,0.75,False,,male,test2,fr,283,90,2,0,1,0.0,--,--,--,--,--
120,1200,1920,49,.75,1.5,0.75,False,,male,test2,fr,284,90,2,0,1,0.0,--,--,--,--,--
120,1200,1920,49,.75,1.5,0.75,False,,male,test2,fr,285,90,2,0,1,0.0,--,--,--,--,--
120,1200,1920,49,.75,1.5,0.75,False,,male,test2,fr,286,90,2,1,1,0.0,--,--,--,--,--
120,1200,1920,49,.75,1.5,0.75,False,,male,test2,fr,287,90,2,0,1,0.0,--,--,--,--,--
120,1200,1920,49,.75,1.5,0.75,False,,male,test2,fr,288,90,1,1,1,0.0,--,--,--,--,--
120,1200,1920,49,.75,1.5,0.75,False,,male,test2,fr,289,90,1,0,1,0.0,--,--,--,--,--
120,1200,1920,49,.75,1.5,0.75,False,,male,test2,fr,290,90,2,1,1,0.0,--,--,--,--,--
120,1200,1920,49,.75,1.5,0.75,False,,male,test2,fr,291,90,2,1,1,0.0,--,--,--,--,--
120,1200,1920,49,.75,1.5,0.75,False,,male,test2,fr,292,90,2,1,1,0.0,--,--,--,--,--
120,1200,1920,49,.75,1.5,0.75,False,,male,test2,fr,293,90,1,0,1,0.0,--,--,--,--,--
120,1200,1920,49,.75,1.5,0.75,False,,male,test2,fr,294,90,1,1,1,0.0,--,--,--,--,--
120,1200,1920,49,.75,1.5,0.75,False,,male,test2,fr,295,90,1,1,1,0.0,--,--,--,--,--
120,1200,1920,49,.75,1.5,0.75,False,,male,test2,fr,296,90,1,0,1,0.0,--,--,--,--,--
120,1200,1920,49,.75,1.5,0.75,False,,male,test2,fr,297,90,2,0,1,0.0,--,--,--,--,--
120,1200,1920,49,.75,1.5,0.75,False,,male,test2,fr,298,90,2,1,1,0.0,--,--,--,--,--
120,1200,1920,49,.75,1.5,0.75,False,,male,test2,fr,299,90,1,1,1,0.0,--,--,--,--,--
120,1200,1920,49,.75,1.5,0.75,False,,male,test2,fr,300,90,1,1,1,0.0,--,--,--,--,--
120,1200,1920,49,.75,1.5,0.75,False,,male,test2,fr,301,90,2,1,1,0.0,--,--,--,--,--
120,1200,1920,49,.75,1.5,0.75,False,,male,test2,fr,302,90,1,1,1,0.0,--,--,--,--,--
120,1200,1920,49,.75,1.5,0.75,False,,male,test2,fr,303,90,2,1,1,0.0,--,--,--,--,--
120,1200,1920,49,.75,1.5,0.75,False,,male,test2,fr,304,90,2,1,1,0.0,--,--,--,--,--
120,1200,1920,49,.75,1.5,0.75,False,,male,test2,fr,305,90,1,1,1,0.0,--,--,--,--,--
120,1200,1920,49,.75,1.5,0.75,False,,male,test2,fr,306,90,2,1,1,0.0,--,--,--,--,--
120,1200,1920,49,.75,1.5,0.75,False,,male,test2,fr,307,90,1,0,1,0.0,--,--,--,--,--
120,1200,1920,49,.75,1.5,0.75,False,,male,test2,fr,308,90,2,1,1,0.0,--,--,--,--,--
120,1200,1920,49,.75,1.5,0.75,False,,male,test2,fr,309,90,1,1,1,0.0,--,--,--,--,--
120,1200,1920,49,.75,1.5,0.75,False,,male,test2,fr,310,90,1,0,1,0.0,--,--,--,--,--
120,1200,1920,49,.75,1.5,0.75,False,,male,test2,fr,311,90,2,1,1,0.0,--,--,--,--,--
120,1200,1920,49,.75,1.5,0.75,False,,male,test2,fr,312,90,1,0,1,0.0,--,--,--,--,--
120,1200,1920,49,.75,1.5,0.75,False,,male,test2,fr,313,90,2,0,1,0.0,--,--,--,--,--
120,1200,1920,49,.75,1.5,0.75,False,,male,test2,fr,314,90,2,1,1,0.0,--,--,--,--,--
120,1200,1920,49,.75,1.5,0.75,False,,male,test2,fr,315,90,2,1,1,0.0,--,--,--,--,--
120,1200,1920,49,.75,1.5,0.75,False,,male,test2,fr,316,90,1,0,1,0.0,--,--,--,--,--
120,1200,1920,49,.75,1.5,0.75,False,,male,test2,fr,317,90,2,0,1,0.0,--,--,--,--,--
120,1200,1920,49,.75,1.5,0.75,False,,male,test2,fr,318,90,1,1,1,0.0,--,--,--,--,--
120,1200,1920,49,.75,1.5,0.75,False,,male,test2,fr,319,90,2,0,1,0.0,--,--,--,--,--
120,1200,1920,49,.75,1.5,0.75,False,,male,test2,fr,320,90,1,0,1,0.0,--,--,--,--,--
120,1200,1920,49,.75,1.5,0.75,False,,male,test2,fr,321,361,2,0,3,0.0,--,--,--,--,--
120,1200,1920,49,.75,1.5,0.75,False,,male,test2,fr,322,361,2,0,3,0.0,--,--,--,--,--
120,1200,1920,49,.75,1.5,0.75,False,,male,test2,fr,323,361,2,1,3,0.0,--,--,--,--,--
120,1200,1920,49,.75,1.5,0.75,False,,male,test2,fr,324,361,2,0,3,0.0,--,--,--,--,--
120,1200,1920,49,.75,1.5,0.75,False,,male,test2,fr,325,361,2,0,3,0.0,--,--,--,--,--
120,1200,1920,49,.75,1.5,0.75,False,,male,test2,fr,326,361,1,1,3,0.0,--,--,--,--,--
120,1200,1920,49,.75,1.5,0.75,False,,male,test2,fr,327,361,1,1,3,0.0,--,--,--,--,--
120,1200,1920,49,.75,1.5,0.75,False,,male,test2,fr,328,361,2,0,3,0.0,--,--,--,--,--
120,1200,1920,49,.75,1.5,0.75,False,,male,test2,fr,329,361,1,0,3,0.0,--,--,--,--,--
120,1200,1920,49,.75,1.5,0.75,False,,male,test2,fr,330,361,1,0,3,0.0,--,--,--,--,--
120,1200,1920,49,.75,1.5,0.75,False,,male,test2,fr,331,361,2,1,3,0.0,--,--,--,--,--
120,1200,1920,49,.75,1.5,0.75,False,,male,test2,fr,332,361,2,1,3,0.0,--,--,--,--,--
120,1200,1920,49,.75,1.5,0.75,False,,male,test2,fr,333,361,1,1,3,0.0,--,--,--,--,--
120,1200,1920,49,.75,1.5,0.75,False,,male,test2,fr,334,361,1,1,3,0.0,--,--,--,--,--
120,1200,1920,49,.75,1.5,0.75,False,,male,test2,fr,335,361,1,0,3,0.0,--,--,--,--,--
120,1200,1920,49,.75,1.5,0.75,False,,male,test2,fr,336,361,1,0,3,0.0,--,--,--,--,--
120,1200,1920,49,.75,1.5,0.75,False,,male,test2,fr,337,361,2,1,3,0.0,--,--,--,--,--
120,1200,1920,49,.75,1.5,0.75,False,,male,test2,fr,338,361,1,0,3,0.0,--,--,--,--,--
120,1200,1920,49,.75,1.5,0.75,False,,male,test2,fr,339,361,2,0,3,0.0,--,--,--,--,--
120,1200,1920,49,.75,1.5,0.75,False,,male,test2,fr,340,361,2,0,3,0.0,--,--,--,--,--
120,1200,1920,49,.75,1.5,0.75,False,,male,test2,fr,341,361,1,0,3,0.0,--,--,--,--,--
120,1200,1920,49,.75,1.5,0.75,False,,male,test2,fr,342,361,1,1,3,0.0,--,--,--,--,--
120,1200,1920,49,.75,1.5,0.75,False,,male,test2,fr,343,361,1,0,3,0.0,--,--,--,--,--
120,1200,1920,49,.75,1.5,0.75,False,,male,test2,fr,344,361,2,0,3,0.0,--,--,--,--,--
120,1200,1920,49,.75,1.5,0.75,False,,male,test2,fr,345,361,2,1,3,0.0,--,--,--,--,--
120,1200,1920,49,.75,1.5,0.75,False,,male,test2,fr,346,361,2,0,3,0.0,--,--,--,--,--
120,1200,1920,49,.75,1.5,0.75,False,,male,test2,fr,347,361,1,1,3,0.0,--,--,--,--,--
120,1200,1920,49,.75,1.5,0.75,False,,male,test2,fr,348,361,1,1,3,0.0,--,--,--,--,--
120,1200,1920,49,.75,1.5,0.75,False,,male,test2,fr,349,361,2,1,3,0.0,--,--,--,--,--
120,1200,1920,49,.75,1.5,0.75,False,,male,test2,fr,350,361,2,0,3,0.0,--,--,--,--,--
120,1200,1920,49,.75,1.5,0.75,False,,male,test2,fr,351,361,1,0,3,0.0,--,--,--,--,--
120,1200,1920,49,.75,1.5,0.75,False,,male,test2,fr,352,361,1,1,3,0.0,--,--,--,--,--
120,1200,1920,49,.75,1.5,0.75,False,,male,test2,fr,353,361,1,1,3,0.0,--,--,--,--,--
120,1200,1920,49,.75,1.5,0.75,False,,male,test2,fr,354,361,1,0,3,0.0,--,--,--,--,--
120,1200,1920,49,.75,1.5,0.75,False,,male,test2,fr,355,361,1,1,3,0.0,--,--,--,--,--
120,1200,1920,49,.75,1.5,0.75,False,,male,test2,fr,356,361,2,1,3,0.0,--,--,--,--,--
120,1200,1920,49,.75,1.5,0.75,False,,male,test2,fr,357,361,2,0,3,0.0,--,--,--,--,--
120,1200,1920,49,.75,1.5,0.75,False,,male,test2,fr,358,361,1,0,3,0.0,--,--,--,--,--
120,1200,1920,49,.75,1.5,0.75,False,,male,test2,fr,359,361,2,0,3,0.0,--,--,--,--,--
120,1200,1920,49,.75,1.5,0.75,False,,male,test2,fr,360,361,1,0,3,0.0,--,--,--,--,--
120,1200,1920,49,.75,1.5,0.75,False,,male,test2,fr,361,361,2,1,3,0.0,--,--,--,--,--
120,1200,1920,49,.75,1.5,0.75,False,,male,test2,fr,362,361,2,1,3,0.0,--,--,--,--,--
120,1200,1920,49,.75,1.5,0.75,False,,male,test2,fr,363,361,2,1,3,0.0,--,--,--,--,--
120,1200,1920,49,.75,1.5,0.75,False,,male,test2,fr,364,361,1,0,3,0.0,--,--,--,--,--
120,1200,1920,49,.75,1.5,0.75,False,,male,test2,fr,365,361,1,1,3,0.0,--,--,--,--,--
120,1200,1920,49,.75,1.5,0.75,False,,male,test2,fr,366,361,1,1,3,0.0,--,--,--,--,--
120,1200,1920,49,.75,1.5,0.75,False,,male,test2,fr,367,361,1,1,3,0.0,--,--,--,--,--
120,1200,1920,49,.75,1.5,0.75,False,,male,test2,fr,368,361,1,0,3,0.0,--,--,--,--,--
120,1200,1920,49,.75,1.5,0.75,False,,male,test2,fr,369,361,1,0,3,0.0,--,--,--,--,--
120,1200,1920,49,.75,1.5,0.75,False,,male,test2,fr,370,361,1,1,3,0.0,--,--,--,--,--
120,1200,1920,49,.75,1.5,0.75,False,,male,test2,fr,371,361,2,0,3,0.0,--,--,--,--,--
120,1200,1920,49,.75,1.5,0.75,False,,male,test2,fr,372,361,2,1,3,0.0,--,--,--,--,--
120,1200,1920,49,.75,1.5,0.75,False,,male,test2,fr,373,361,1,1,3,0.0,--,--,--,--,--
120,1200,1920,49,.75,1.5,0.75,False,,male,test2,fr,374,361,1,1,3,0.0,--,--,--,--,--
120,1200,1920,49,.75,1.5,0.75,False,,male,test2,fr,375,361,1,0,3,0.0,--,--,--,--,--
120,1200,1920,49,.75,1.5,0.75,False,,male,test2,fr,376,361,2,0,3,0.0,--,--,--,--,--
120,1200,1920,49,.75,1.5,0.75,False,,male,test2,fr,377,361,2,1,3,0.0,--,--,--,--,--
120,1200,1920,49,.75,1.5,0.75,False,,male,test2,fr,378,361,1,1,3,0.0,--,--,--,--,--
120,1200,1920,49,.75,1.5,0.75,False,,male,test2,fr,379,361,2,1,3,0.0,--,--,--,--,--
120,1200,1920,49,.75,1.5,0.75,False,,male,test2,fr,380,361,2,1,3,0.0,--,--,--,--,--
120,1200,1920,49,.75,1.5,0.75,False,,male,test2,fr,381,361,2,0,3,0.0,--,--,--,--,--
120,1200,1920,49,.75,1.5,0.75,False,,male,test2,fr,382,361,1,0,3,0.0,--,--,--,--,--
120,1200,1920,49,.75,1.5,0.75,False,,male,test2,fr,383,361,2,0,3,0.0,--,--,--,--,--
120,1200,1920,49,.75,1.5,0.75,False,,male,test2,fr,384,361,2,1,3,0.0,--,--,--,--,--
120,1200,1920,49,.75,1.5,0.75,False,,male,test2,fr,385,361,1,0,3,0.0,--,--,--,--,--
120,1200,1920,49,.75,1.5,0.75,False,,male,test2,fr,386,361,2,1,3,0.0,--,--,--,--,--
120,1200,1920,49,.75,1.5,0.75,False,,male,test2,fr,387,361,2,0,3,0.0,--,--,--,--,--
120,1200,1920,49,.75,1.5,0.75,False,,male,test2,fr,388,361,2,1,3,0.0,--,--,--,--,--
120,1200,1920,49,.75,1.5,0.75,False,,male,test2,fr,389,361,1,1,3,0.0,--,--,--,--,--
120,1200,1920,49,.75,1.5,0.75,False,,male,test2,fr,390,361,1,0,3,0.0,--,--,--,--,--
120,1200,1920,49,.75,1.5,0.75,False,,male,test2,fr,391,361,2,1,3,0.0,--,--,--,--,--
120,1200,1920,49,.75,1.5,0.75,False,,male,test2,fr,392,361,2,0,3,0.0,--,--,--,--,--
120,1200,1920,49,.75,1.5,0.75,False,,male,test2,fr,393,361,2,0,3,0.0,--,--,--,--,--
120,1200,1920,49,.75,1.5,0.75,False,,male,test2,fr,394,361,2,1,3,0.0,--,--,--,--,--
120,1200,1920,49,.75,1.5,0.75,False,,male,test2,fr,395,361,1,0,3,0.0,--,--,--,--,--
120,1200,1920,49,.75,1.5,0.75,False,,male,test2,fr,396,361,2,0,3,0.0,--,--,--,--,--
120,1200,1920,49,.75,1.5,0.75,False,,male,test2,fr,397,361,2,1,3,0.0,--,--,--,--,--
120,1200,1920,49,.75,1.5,0.75,False,,male,test2,fr,398,361,1,0,3,0.0,--,--,--,--,--
120,1200,1920,49,.75,1.5,0.75,False,,male,test2,fr,399,361,1,1,3,0.0,--,--,--,--,--
120,1200,1920,49,.75,1.5,0.75,False,,male,test2,fr,400,361,1,1,3,0.0,--,--,--,--,--
120,1200,1920,49,.75,1.5,0.75,False,,male,test2,fr,401,0,1,0,2,0.0,--,--,--,--,--
120,1200,1920,49,.75,1.5,0.75,False,,male,test2,fr,402,0,1,0,2,0.0,--,--,--,--,--
120,1200,1920,49,.75,1.5,0.75,False,,male,test2,fr,403,0,1,0,2,0.0,--,--,--,--,--
120,1200,1920,49,.75,1.5,0.75,False,,male,test2,fr,404,0,2,0,2,0.0,--,--,--,--,--
120,1200,1920,49,.75,1.5,0.75,False,,male,test2,fr,405,0,1,0,2,0.0,--,--,--,--,--
120,1200,1920,49,.75,1.5,0.75,False,,male,test2,fr,406,0,1,1,2,0.0,--,--,--,--,--
120,1200,1920,49,.75,1.5,0.75,False,,male,test2,fr,407,0,2,0,2,0.0,--,--,--,--,--
120,1200,1920,49,.75,1.5,0.75,False,,male,test2,fr,408,0,1,1,2,0.0,--,--,--,--,--
120,1200,1920,49,.75,1.5,0.75,False,,male,test2,fr,409,0,1,0,2,0.0,--,--,--,--,--
120,1200,1920,49,.75,1.5,0.75,False,,male,test2,fr,410,0,2,0,2,0.0,--,--,--,--,--
120,1200,1920,49,.75,1.5,0.75,False,,male,test2,fr,411,0,1,1,2,0.0,--,--,--,--,--
120,1200,1920,49,.75,1.5,0.75,False,,male,test2,fr,412,0,1,1,2,0.0,--,--,--,--,--
120,1200,1920,49,.75,1.5,0.75,False,,male,test2,fr,413,0,2,0,2,0.0,--,--,--,--,--
120,1200,1920,49,.75,1.5,0.75,False,,male,test2,fr,414,0,2,0,2,0.0,--,--,--,--,--
120,1200,1920,49,.75,1.5,0.75,False,,male,test2,fr,415,0,2,1,2,0.0,--,--,--,--,--
120,1200,1920,49,.75,1.5,0.75,False,,male,test2,fr,416,0,1,0,2,0.0,--,--,--,--,--
120,1200,1920,49,.75,1.5,0.75,False,,male,test2,fr,417,0,1,0,2,0.0,--,--,--,--,--
120,1200,1920,49,.75,1.5,0.75,False,,male,test2,fr,418,0,1,0,2,0.0,--,--,--,--,--
120,1200,1920,49,.75,1.5,0.75,False,,male,test2,fr,419,0,2,1,2,0.0,--,--,--,--,--
120,1200,1920,49,.75,1.5,0.75,False,,male,test2,fr,420,0,2,0,2,0.0,--,--,--,--,--
120,1200,1920,49,.75,1.5,0.75,False,,male,test2,fr,421,0,1,0,2,0.0,--,--,--,--,--
120,1200,1920,49,.75,1.5,0.75,False,,male,test2,fr,422,0,1,1,2,0.0,--,--,--,--,--
120,1200,1920,49,.75,1.5,0.75,False,,male,test2,fr,423,0,2,1,2,0.0,--,--,--,--,--
120,1200,1920,49,.75,1.5,0.75,False,,male,test2,fr,424,0,2,1,2,0.0,--,--,--,--,--
120,1200,1920,49,.75,1.5,0.75,False,,male,test2,fr,425,0,1,1,2,0.0,--,--,--,--,--
120,1200,1920,49,.75,1.5,0.75,False,,male,test2,fr,426,0,2,0,2,0.0,--,--,--,--,--
120,1200,1920,49,.75,1.5,0.75,False,,male,test2,fr,427,0,1,0,2,0.0,--,--,--,--,--
120,1200,1920,49,.75,1.5,0.75,False,,male,test2,fr,428,0,2,0,2,0.0,--,--,--,--,--
120,1200,1920,49,.75,1.5,0.75,False,,male,test2,fr,429,0,2,1,2,0.0,--,--,--,--,--
120,1200,1920,49,.75,1.5,0.75,False,,male,test2,fr,430,0,2,1,2,0.0,--,--,--,--,--
120,1200,1920,49,.75,1.5,0.75,False,,male,test2,fr,431,0,2,0,2,0.0,--,--,--,--,--
120,1200,1920,49,.75,1.5,0.75,False,,male,test2,fr,432,0,1,1,2,0.0,--,--,--,--,--
120,1200,1920,49,.75,1.5,0.75,False,,male,test2,fr,433,0,1,1,2,0.0,--,--,--,--,--
120,1200,1920,49,.75,1.5,0.75,False,,male,test2,fr,434,0,2,1,2,0.0,--,--,--,--,--
120,1200,1920,49,.75,1.5,0.75,False,,male,test2,fr,435,0,1,0,2,0.0,--,--,--,--,--
120,1200,1920,49,.75,1.5,0.75,False,,male,test2,fr,436,0,1,1,2,0.0,--,--,--,--,--
120,1200,1920,49,.75,1.5,0.75,False,,male,test2,fr,437,0,1,0,2,0.0,--,--,--,--,--
120,1200,1920,49,.75,1.5,0.75,False,,male,test2,fr,438,0,2,1,2,0.0,--,--,--,--,--
120,1200,1920,49,.75,1.5,0.75,False,,male,test2,fr,439,0,2,1,2,0.0,--,--,--,--,--
120,1200,1920,49,.75,1.5,0.75,False,,male,test2,fr,440,0,2,1,2,0.0,--,--,--,--,--
120,1200,1920,49,.75,1.5,0.75,False,,male,test2,fr,441,0,1,1,2,0.0,--,--,--,--,--
120,1200,1920,49,.75,1.5,0.75,False,,male,test2,fr,442,0,2,1,2,0.0,--,--,--,--,--
120,1200,1920,49,.75,1.5,0.75,False,,male,test2,fr,443,0,1,0,2,0.0,--,--,--,--,--
120,1200,1920,49,.75,1.5,0.75,False,,male,test2,fr,444,0,2,1,2,0.0,--,--,--,--,--
120,1200,1920,49,.75,1.5,0.75,False,,male,test2,fr,445,0,2,0,2,0.0,--,--,--,--,--
120,1200,1920,49,.75,1.5,0.75,False,,male,test2,fr,446,0,2,1,2,0.0,--,--,--,--,--
120,1200,1920,49,.75,1.5,0.75,False,,male,test2,fr,447,0,2,1,2,0.0,--,--,--,--,--
120,1200,1920,49,.75,1.5,0.75,False,,male,test2,fr,448,0,1,0,2,0.0,--,--,--,--,--
120,1200,1920,49,.75,1.5,0.75,False,,male,test2,fr,449,0,2,0,2,0.0,--,--,--,--,--
120,1200,1920,49,.75,1.5,0.75,False,,male,test2,fr,450,0,2,0,2,0.0,--,--,--,--,--
120,1200,1920,49,.75,1.5,0.75,False,,male,test2,fr,451,0,2,1,2,0.0,--,--,--,--,--
120,1200,1920,49,.75,1.5,0.75,False,,male,test2,fr,452,0,2,1,2,0.0,--,--,--,--,--
120,1200,1920,49,.75,1.5,0.75,False,,male,test2,fr,453,0,1,1,2,0.0,--,--,--,--,--
120,1200,1920,49,.75,1.5,0.75,False,,male,test2,fr,454,0,1,1,2,0.0,--,--,--,--,--
120,1200,1920,49,.75,1.5,0.75,False,,male,test2,fr,455,0,1,1,2,0.0,--,--,--,--,--
120,1200,1920,49,.75,1.5,0.75,False,,male,test2,fr,456,0,2,0,2,0.0,--,--,--,--,--
120,1200,1920,49,.75,1.5,0.75,False,,male,test2,fr,457,0,1,0,2,0.0,--,--,--,--,--
120,1200,1920,49,.75,1.5,0.75,False,,male,test2,fr,458,0,1,0,2,0.0,--,--,--,--,--
120,1200,1920,49,.75,1.5,0.75,False,,male,test2,fr,459,0,1,0,2,0.0,--,--,--,--,--
120,1200,1920,49,.75,1.5,0.75,False,,male,test2,fr,460,0,2,0,2,0.0,--,--,--,--,--
120,1200,1920,49,.75,1.5,0.75,False,,male,test2,fr,461,0,1,1,2,0.0,--,--,--,--,--
120,1200,1920,49,.75,1.5,0.75,False,,male,test2,fr,462,0,1,1,2,0.0,--,--,--,--,--
120,1200,1920,49,.75,1.5,0.75,False,,male,test2,fr,463,0,2,1,2,0.0,--,--,--,--,--
120,1200,1920,49,.75,1.5,0.75,False,,male,test2,fr,464,0,2,1,2,0.0,--,--,--,--,--
120,1200,1920,49,.75,1.5,0.75,False,,male,test2,fr,465,0,1,1,2,0.0,--,--,--,--,--
120,1200,1920,49,.75,1.5,0.75,False,,male,test2,fr,466,0,2,0,2,0.0,--,--,--,--,--
120,1200,1920,49,.75,1.5,0.75,False,,male,test2,fr,467,0,1,1,2,0.0,--,--,--,--,--
120,1200,1920,49,.75,1.5,0.75,False,,male,test2,fr,468,0,1,1,2,0.0,--,--,--,--,--
