exp_name,date,refreshrate(hz),screenresolutionvert(pixels),screenresolutionhori(pixels),screenwidth(cm),eccentricity,Stim_size,left-handed,age,gender,participant,language,TrialNumber,bgori,temp,staircase,targetloc,cond,ran,order,resp,rt,acc,contrast
Contrast Stuff,2022_Oct_13_1409,100,1200,1920,49,3,2.5,False,,male,,fr,1,90,0,1,0,1,1.0,0.0,1.0,0.462671,0.0,0.06016856135202387
Contrast Stuff,2022_Oct_13_1409,100,1200,1920,49,3,2.5,False,,male,,fr,2,90,0,2,0,1,1.0,1.0,0.0,0.3634516,1.0,0.06016856135202387
Contrast Stuff,2022_Oct_13_1409,100,1200,1920,49,3,2.5,False,,male,,fr,3,90,0,1,0,1,1.0,2.0,--,--,--,--
Contrast Stuff,2022_Oct_13_1409,100,1200,1920,49,3,2.5,False,,male,,fr,4,90,0,1,0,1,0.0,--,--,--,--,--
Contrast Stuff,2022_Oct_13_1409,100,1200,1920,49,3,2.5,False,,male,,fr,5,90,0,2,0,1,0.0,--,--,--,--,--
Contrast Stuff,2022_Oct_13_1409,100,1200,1920,49,3,2.5,False,,male,,fr,6,90,0,1,1,1,0.0,--,--,--,--,--
Contrast Stuff,2022_Oct_13_1409,100,1200,1920,49,3,2.5,False,,male,,fr,7,90,0,1,0,1,0.0,--,--,--,--,--
Contrast Stuff,2022_Oct_13_1409,100,1200,1920,49,3,2.5,False,,male,,fr,8,90,0,2,0,1,0.0,--,--,--,--,--
Contrast Stuff,2022_Oct_13_1409,100,1200,1920,49,3,2.5,False,,male,,fr,9,90,0,2,1,1,0.0,--,--,--,--,--
Contrast Stuff,2022_Oct_13_1409,100,1200,1920,49,3,2.5,False,,male,,fr,10,90,0,1,1,1,0.0,--,--,--,--,--
Contrast Stuff,2022_Oct_13_1409,100,1200,1920,49,3,2.5,False,,male,,fr,11,90,0,2,1,1,0.0,--,--,--,--,--
Contrast Stuff,2022_Oct_13_1409,100,1200,1920,49,3,2.5,False,,male,,fr,12,90,0,2,0,1,0.0,--,--,--,--,--
Contrast Stuff,2022_Oct_13_1409,100,1200,1920,49,3,2.5,False,,male,,fr,13,90,0,2,1,1,0.0,--,--,--,--,--
Contrast Stuff,2022_Oct_13_1409,100,1200,1920,49,3,2.5,False,,male,,fr,14,90,0,1,0,1,0.0,--,--,--,--,--
Contrast Stuff,2022_Oct_13_1409,100,1200,1920,49,3,2.5,False,,male,,fr,15,90,0,1,1,1,0.0,--,--,--,--,--
Contrast Stuff,2022_Oct_13_1409,100,1200,1920,49,3,2.5,False,,male,,fr,16,90,0,1,1,1,0.0,--,--,--,--,--
Contrast Stuff,2022_Oct_13_1409,100,1200,1920,49,3,2.5,False,,male,,fr,17,90,0,1,1,1,0.0,--,--,--,--,--
Contrast Stuff,2022_Oct_13_1409,100,1200,1920,49,3,2.5,False,,male,,fr,18,90,0,2,1,1,0.0,--,--,--,--,--
Contrast Stuff,2022_Oct_13_1409,100,1200,1920,49,3,2.5,False,,male,,fr,19,90,0,1,0,1,0.0,--,--,--,--,--
Contrast Stuff,2022_Oct_13_1409,100,1200,1920,49,3,2.5,False,,male,,fr,20,90,0,1,0,1,0.0,--,--,--,--,--
Contrast Stuff,2022_Oct_13_1409,100,1200,1920,49,3,2.5,False,,male,,fr,21,90,0,2,1,1,0.0,--,--,--,--,--
Contrast Stuff,2022_Oct_13_1409,100,1200,1920,49,3,2.5,False,,male,,fr,22,90,0,2,1,1,0.0,--,--,--,--,--
Contrast Stuff,2022_Oct_13_1409,100,1200,1920,49,3,2.5,False,,male,,fr,23,90,0,2,0,1,0.0,--,--,--,--,--
Contrast Stuff,2022_Oct_13_1409,100,1200,1920,49,3,2.5,False,,male,,fr,24,90,0,1,1,1,0.0,--,--,--,--,--
Contrast Stuff,2022_Oct_13_1409,100,1200,1920,49,3,2.5,False,,male,,fr,25,90,0,2,0,1,0.0,--,--,--,--,--
Contrast Stuff,2022_Oct_13_1409,100,1200,1920,49,3,2.5,False,,male,,fr,26,90,0,1,1,1,0.0,--,--,--,--,--
Contrast Stuff,2022_Oct_13_1409,100,1200,1920,49,3,2.5,False,,male,,fr,27,90,0,2,0,1,0.0,--,--,--,--,--
Contrast Stuff,2022_Oct_13_1409,100,1200,1920,49,3,2.5,False,,male,,fr,28,90,0,1,0,1,0.0,--,--,--,--,--
Contrast Stuff,2022_Oct_13_1409,100,1200,1920,49,3,2.5,False,,male,,fr,29,90,0,2,0,1,0.0,--,--,--,--,--
Contrast Stuff,2022_Oct_13_1409,100,1200,1920,49,3,2.5,False,,male,,fr,30,90,0,1,0,1,0.0,--,--,--,--,--
Contrast Stuff,2022_Oct_13_1409,100,1200,1920,49,3,2.5,False,,male,,fr,31,90,0,1,1,1,0.0,--,--,--,--,--
Contrast Stuff,2022_Oct_13_1409,100,1200,1920,49,3,2.5,False,,male,,fr,32,90,0,1,1,1,0.0,--,--,--,--,--
Contrast Stuff,2022_Oct_13_1409,100,1200,1920,49,3,2.5,False,,male,,fr,33,90,0,1,0,1,0.0,--,--,--,--,--
Contrast Stuff,2022_Oct_13_1409,100,1200,1920,49,3,2.5,False,,male,,fr,34,90,0,1,1,1,0.0,--,--,--,--,--
Contrast Stuff,2022_Oct_13_1409,100,1200,1920,49,3,2.5,False,,male,,fr,35,90,0,2,0,1,0.0,--,--,--,--,--
Contrast Stuff,2022_Oct_13_1409,100,1200,1920,49,3,2.5,False,,male,,fr,36,90,0,1,0,1,0.0,--,--,--,--,--
Contrast Stuff,2022_Oct_13_1409,100,1200,1920,49,3,2.5,False,,male,,fr,37,90,0,2,1,1,0.0,--,--,--,--,--
Contrast Stuff,2022_Oct_13_1409,100,1200,1920,49,3,2.5,False,,male,,fr,38,90,0,2,1,1,0.0,--,--,--,--,--
Contrast Stuff,2022_Oct_13_1409,100,1200,1920,49,3,2.5,False,,male,,fr,39,90,0,2,0,1,0.0,--,--,--,--,--
Contrast Stuff,2022_Oct_13_1409,100,1200,1920,49,3,2.5,False,,male,,fr,40,90,0,1,1,1,0.0,--,--,--,--,--
Contrast Stuff,2022_Oct_13_1409,100,1200,1920,49,3,2.5,False,,male,,fr,41,90,0,1,0,1,0.0,--,--,--,--,--
Contrast Stuff,2022_Oct_13_1409,100,1200,1920,49,3,2.5,False,,male,,fr,42,90,0,2,1,1,0.0,--,--,--,--,--
Contrast Stuff,2022_Oct_13_1409,100,1200,1920,49,3,2.5,False,,male,,fr,43,90,0,1,1,1,0.0,--,--,--,--,--
Contrast Stuff,2022_Oct_13_1409,100,1200,1920,49,3,2.5,False,,male,,fr,44,90,0,2,0,1,0.0,--,--,--,--,--
Contrast Stuff,2022_Oct_13_1409,100,1200,1920,49,3,2.5,False,,male,,fr,45,90,0,2,1,1,0.0,--,--,--,--,--
Contrast Stuff,2022_Oct_13_1409,100,1200,1920,49,3,2.5,False,,male,,fr,46,90,0,2,1,1,0.0,--,--,--,--,--
Contrast Stuff,2022_Oct_13_1409,100,1200,1920,49,3,2.5,False,,male,,fr,47,90,0,2,0,1,0.0,--,--,--,--,--
Contrast Stuff,2022_Oct_13_1409,100,1200,1920,49,3,2.5,False,,male,,fr,48,90,0,2,0,1,0.0,--,--,--,--,--
Contrast Stuff,2022_Oct_13_1409,100,1200,1920,49,3,2.5,False,,male,,fr,49,90,0,1,1,1,0.0,--,--,--,--,--
Contrast Stuff,2022_Oct_13_1409,100,1200,1920,49,3,2.5,False,,male,,fr,50,90,0,1,0,1,0.0,--,--,--,--,--
Contrast Stuff,2022_Oct_13_1409,100,1200,1920,49,3,2.5,False,,male,,fr,51,90,0,2,0,1,0.0,--,--,--,--,--
Contrast Stuff,2022_Oct_13_1409,100,1200,1920,49,3,2.5,False,,male,,fr,52,90,0,2,1,1,0.0,--,--,--,--,--
Contrast Stuff,2022_Oct_13_1409,100,1200,1920,49,3,2.5,False,,male,,fr,53,90,0,2,1,1,0.0,--,--,--,--,--
Contrast Stuff,2022_Oct_13_1409,100,1200,1920,49,3,2.5,False,,male,,fr,54,90,0,2,0,1,0.0,--,--,--,--,--
Contrast Stuff,2022_Oct_13_1409,100,1200,1920,49,3,2.5,False,,male,,fr,55,90,0,2,0,1,0.0,--,--,--,--,--
Contrast Stuff,2022_Oct_13_1409,100,1200,1920,49,3,2.5,False,,male,,fr,56,90,0,1,0,1,0.0,--,--,--,--,--
Contrast Stuff,2022_Oct_13_1409,100,1200,1920,49,3,2.5,False,,male,,fr,57,90,0,1,1,1,0.0,--,--,--,--,--
Contrast Stuff,2022_Oct_13_1409,100,1200,1920,49,3,2.5,False,,male,,fr,58,90,0,1,1,1,0.0,--,--,--,--,--
Contrast Stuff,2022_Oct_13_1409,100,1200,1920,49,3,2.5,False,,male,,fr,59,90,0,1,1,1,0.0,--,--,--,--,--
Contrast Stuff,2022_Oct_13_1409,100,1200,1920,49,3,2.5,False,,male,,fr,60,90,0,1,0,1,0.0,--,--,--,--,--
Contrast Stuff,2022_Oct_13_1409,100,1200,1920,49,3,2.5,False,,male,,fr,61,90,0,1,0,1,0.0,--,--,--,--,--
Contrast Stuff,2022_Oct_13_1409,100,1200,1920,49,3,2.5,False,,male,,fr,62,90,0,1,0,1,0.0,--,--,--,--,--
Contrast Stuff,2022_Oct_13_1409,100,1200,1920,49,3,2.5,False,,male,,fr,63,90,0,1,1,1,0.0,--,--,--,--,--
Contrast Stuff,2022_Oct_13_1409,100,1200,1920,49,3,2.5,False,,male,,fr,64,90,0,1,0,1,0.0,--,--,--,--,--
Contrast Stuff,2022_Oct_13_1409,100,1200,1920,49,3,2.5,False,,male,,fr,65,90,0,2,1,1,0.0,--,--,--,--,--
Contrast Stuff,2022_Oct_13_1409,100,1200,1920,49,3,2.5,False,,male,,fr,66,90,0,2,1,1,0.0,--,--,--,--,--
Contrast Stuff,2022_Oct_13_1409,100,1200,1920,49,3,2.5,False,,male,,fr,67,90,0,2,1,1,0.0,--,--,--,--,--
Contrast Stuff,2022_Oct_13_1409,100,1200,1920,49,3,2.5,False,,male,,fr,68,90,0,2,0,1,0.0,--,--,--,--,--
Contrast Stuff,2022_Oct_13_1409,100,1200,1920,49,3,2.5,False,,male,,fr,69,90,0,2,0,1,0.0,--,--,--,--,--
Contrast Stuff,2022_Oct_13_1409,100,1200,1920,49,3,2.5,False,,male,,fr,70,90,0,1,1,1,0.0,--,--,--,--,--
Contrast Stuff,2022_Oct_13_1409,100,1200,1920,49,3,2.5,False,,male,,fr,71,90,0,1,0,1,0.0,--,--,--,--,--
Contrast Stuff,2022_Oct_13_1409,100,1200,1920,49,3,2.5,False,,male,,fr,72,90,0,2,1,1,0.0,--,--,--,--,--
Contrast Stuff,2022_Oct_13_1409,100,1200,1920,49,3,2.5,False,,male,,fr,73,90,0,2,0,1,0.0,--,--,--,--,--
Contrast Stuff,2022_Oct_13_1409,100,1200,1920,49,3,2.5,False,,male,,fr,74,90,0,1,1,1,0.0,--,--,--,--,--
Contrast Stuff,2022_Oct_13_1409,100,1200,1920,49,3,2.5,False,,male,,fr,75,90,0,2,1,1,0.0,--,--,--,--,--
Contrast Stuff,2022_Oct_13_1409,100,1200,1920,49,3,2.5,False,,male,,fr,76,90,0,2,1,1,0.0,--,--,--,--,--
Contrast Stuff,2022_Oct_13_1409,100,1200,1920,49,3,2.5,False,,male,,fr,77,90,0,2,0,1,0.0,--,--,--,--,--
Contrast Stuff,2022_Oct_13_1409,100,1200,1920,49,3,2.5,False,,male,,fr,78,90,0,1,0,1,0.0,--,--,--,--,--
Contrast Stuff,2022_Oct_13_1409,100,1200,1920,49,3,2.5,False,,male,,fr,79,90,0,1,1,1,0.0,--,--,--,--,--
Contrast Stuff,2022_Oct_13_1409,100,1200,1920,49,3,2.5,False,,male,,fr,80,90,0,2,1,1,0.0,--,--,--,--,--
Contrast Stuff,2022_Oct_13_1409,100,1200,1920,49,3,2.5,False,,male,,fr,81,0,0,1,1,2,0.0,--,--,--,--,--
Contrast Stuff,2022_Oct_13_1409,100,1200,1920,49,3,2.5,False,,male,,fr,82,0,0,1,0,2,0.0,--,--,--,--,--
Contrast Stuff,2022_Oct_13_1409,100,1200,1920,49,3,2.5,False,,male,,fr,83,0,0,1,0,2,0.0,--,--,--,--,--
Contrast Stuff,2022_Oct_13_1409,100,1200,1920,49,3,2.5,False,,male,,fr,84,0,0,2,0,2,0.0,--,--,--,--,--
Contrast Stuff,2022_Oct_13_1409,100,1200,1920,49,3,2.5,False,,male,,fr,85,0,0,1,1,2,0.0,--,--,--,--,--
Contrast Stuff,2022_Oct_13_1409,100,1200,1920,49,3,2.5,False,,male,,fr,86,0,0,1,0,2,0.0,--,--,--,--,--
Contrast Stuff,2022_Oct_13_1409,100,1200,1920,49,3,2.5,False,,male,,fr,87,0,0,2,1,2,0.0,--,--,--,--,--
Contrast Stuff,2022_Oct_13_1409,100,1200,1920,49,3,2.5,False,,male,,fr,88,0,0,2,0,2,0.0,--,--,--,--,--
Contrast Stuff,2022_Oct_13_1409,100,1200,1920,49,3,2.5,False,,male,,fr,89,0,0,2,0,2,0.0,--,--,--,--,--
Contrast Stuff,2022_Oct_13_1409,100,1200,1920,49,3,2.5,False,,male,,fr,90,0,0,1,0,2,0.0,--,--,--,--,--
Contrast Stuff,2022_Oct_13_1409,100,1200,1920,49,3,2.5,False,,male,,fr,91,0,0,2,1,2,0.0,--,--,--,--,--
Contrast Stuff,2022_Oct_13_1409,100,1200,1920,49,3,2.5,False,,male,,fr,92,0,0,2,1,2,0.0,--,--,--,--,--
Contrast Stuff,2022_Oct_13_1409,100,1200,1920,49,3,2.5,False,,male,,fr,93,0,0,1,1,2,0.0,--,--,--,--,--
Contrast Stuff,2022_Oct_13_1409,100,1200,1920,49,3,2.5,False,,male,,fr,94,0,0,1,1,2,0.0,--,--,--,--,--
Contrast Stuff,2022_Oct_13_1409,100,1200,1920,49,3,2.5,False,,male,,fr,95,0,0,1,0,2,0.0,--,--,--,--,--
Contrast Stuff,2022_Oct_13_1409,100,1200,1920,49,3,2.5,False,,male,,fr,96,0,0,2,0,2,0.0,--,--,--,--,--
Contrast Stuff,2022_Oct_13_1409,100,1200,1920,49,3,2.5,False,,male,,fr,97,0,0,1,0,2,0.0,--,--,--,--,--
Contrast Stuff,2022_Oct_13_1409,100,1200,1920,49,3,2.5,False,,male,,fr,98,0,0,1,1,2,0.0,--,--,--,--,--
Contrast Stuff,2022_Oct_13_1409,100,1200,1920,49,3,2.5,False,,male,,fr,99,0,0,2,1,2,0.0,--,--,--,--,--
Contrast Stuff,2022_Oct_13_1409,100,1200,1920,49,3,2.5,False,,male,,fr,100,0,0,2,0,2,0.0,--,--,--,--,--
Contrast Stuff,2022_Oct_13_1409,100,1200,1920,49,3,2.5,False,,male,,fr,101,0,0,1,1,2,0.0,--,--,--,--,--
Contrast Stuff,2022_Oct_13_1409,100,1200,1920,49,3,2.5,False,,male,,fr,102,0,0,1,1,2,0.0,--,--,--,--,--
Contrast Stuff,2022_Oct_13_1409,100,1200,1920,49,3,2.5,False,,male,,fr,103,0,0,1,0,2,0.0,--,--,--,--,--
Contrast Stuff,2022_Oct_13_1409,100,1200,1920,49,3,2.5,False,,male,,fr,104,0,0,2,0,2,0.0,--,--,--,--,--
Contrast Stuff,2022_Oct_13_1409,100,1200,1920,49,3,2.5,False,,male,,fr,105,0,0,1,0,2,0.0,--,--,--,--,--
Contrast Stuff,2022_Oct_13_1409,100,1200,1920,49,3,2.5,False,,male,,fr,106,0,0,1,0,2,0.0,--,--,--,--,--
Contrast Stuff,2022_Oct_13_1409,100,1200,1920,49,3,2.5,False,,male,,fr,107,0,0,2,1,2,0.0,--,--,--,--,--
Contrast Stuff,2022_Oct_13_1409,100,1200,1920,49,3,2.5,False,,male,,fr,108,0,0,2,1,2,0.0,--,--,--,--,--
Contrast Stuff,2022_Oct_13_1409,100,1200,1920,49,3,2.5,False,,male,,fr,109,0,0,1,0,2,0.0,--,--,--,--,--
Contrast Stuff,2022_Oct_13_1409,100,1200,1920,49,3,2.5,False,,male,,fr,110,0,0,2,1,2,0.0,--,--,--,--,--
Contrast Stuff,2022_Oct_13_1409,100,1200,1920,49,3,2.5,False,,male,,fr,111,0,0,2,1,2,0.0,--,--,--,--,--
Contrast Stuff,2022_Oct_13_1409,100,1200,1920,49,3,2.5,False,,male,,fr,112,0,0,2,1,2,0.0,--,--,--,--,--
Contrast Stuff,2022_Oct_13_1409,100,1200,1920,49,3,2.5,False,,male,,fr,113,0,0,2,0,2,0.0,--,--,--,--,--
Contrast Stuff,2022_Oct_13_1409,100,1200,1920,49,3,2.5,False,,male,,fr,114,0,0,1,0,2,0.0,--,--,--,--,--
Contrast Stuff,2022_Oct_13_1409,100,1200,1920,49,3,2.5,False,,male,,fr,115,0,0,2,1,2,0.0,--,--,--,--,--
Contrast Stuff,2022_Oct_13_1409,100,1200,1920,49,3,2.5,False,,male,,fr,116,0,0,1,0,2,0.0,--,--,--,--,--
Contrast Stuff,2022_Oct_13_1409,100,1200,1920,49,3,2.5,False,,male,,fr,117,0,0,1,1,2,0.0,--,--,--,--,--
Contrast Stuff,2022_Oct_13_1409,100,1200,1920,49,3,2.5,False,,male,,fr,118,0,0,2,0,2,0.0,--,--,--,--,--
Contrast Stuff,2022_Oct_13_1409,100,1200,1920,49,3,2.5,False,,male,,fr,119,0,0,2,0,2,0.0,--,--,--,--,--
Contrast Stuff,2022_Oct_13_1409,100,1200,1920,49,3,2.5,False,,male,,fr,120,0,0,1,1,2,0.0,--,--,--,--,--
Contrast Stuff,2022_Oct_13_1409,100,1200,1920,49,3,2.5,False,,male,,fr,121,0,0,1,1,2,0.0,--,--,--,--,--
Contrast Stuff,2022_Oct_13_1409,100,1200,1920,49,3,2.5,False,,male,,fr,122,0,0,2,1,2,0.0,--,--,--,--,--
Contrast Stuff,2022_Oct_13_1409,100,1200,1920,49,3,2.5,False,,male,,fr,123,0,0,1,1,2,0.0,--,--,--,--,--
Contrast Stuff,2022_Oct_13_1409,100,1200,1920,49,3,2.5,False,,male,,fr,124,0,0,1,1,2,0.0,--,--,--,--,--
Contrast Stuff,2022_Oct_13_1409,100,1200,1920,49,3,2.5,False,,male,,fr,125,0,0,2,1,2,0.0,--,--,--,--,--
Contrast Stuff,2022_Oct_13_1409,100,1200,1920,49,3,2.5,False,,male,,fr,126,0,0,2,1,2,0.0,--,--,--,--,--
Contrast Stuff,2022_Oct_13_1409,100,1200,1920,49,3,2.5,False,,male,,fr,127,0,0,1,0,2,0.0,--,--,--,--,--
Contrast Stuff,2022_Oct_13_1409,100,1200,1920,49,3,2.5,False,,male,,fr,128,0,0,1,1,2,0.0,--,--,--,--,--
Contrast Stuff,2022_Oct_13_1409,100,1200,1920,49,3,2.5,False,,male,,fr,129,0,0,2,0,2,0.0,--,--,--,--,--
Contrast Stuff,2022_Oct_13_1409,100,1200,1920,49,3,2.5,False,,male,,fr,130,0,0,1,1,2,0.0,--,--,--,--,--
Contrast Stuff,2022_Oct_13_1409,100,1200,1920,49,3,2.5,False,,male,,fr,131,0,0,2,0,2,0.0,--,--,--,--,--
Contrast Stuff,2022_Oct_13_1409,100,1200,1920,49,3,2.5,False,,male,,fr,132,0,0,1,1,2,0.0,--,--,--,--,--
Contrast Stuff,2022_Oct_13_1409,100,1200,1920,49,3,2.5,False,,male,,fr,133,0,0,1,1,2,0.0,--,--,--,--,--
Contrast Stuff,2022_Oct_13_1409,100,1200,1920,49,3,2.5,False,,male,,fr,134,0,0,1,1,2,0.0,--,--,--,--,--
Contrast Stuff,2022_Oct_13_1409,100,1200,1920,49,3,2.5,False,,male,,fr,135,0,0,2,1,2,0.0,--,--,--,--,--
Contrast Stuff,2022_Oct_13_1409,100,1200,1920,49,3,2.5,False,,male,,fr,136,0,0,2,1,2,0.0,--,--,--,--,--
Contrast Stuff,2022_Oct_13_1409,100,1200,1920,49,3,2.5,False,,male,,fr,137,0,0,2,0,2,0.0,--,--,--,--,--
Contrast Stuff,2022_Oct_13_1409,100,1200,1920,49,3,2.5,False,,male,,fr,138,0,0,1,0,2,0.0,--,--,--,--,--
Contrast Stuff,2022_Oct_13_1409,100,1200,1920,49,3,2.5,False,,male,,fr,139,0,0,2,0,2,0.0,--,--,--,--,--
Contrast Stuff,2022_Oct_13_1409,100,1200,1920,49,3,2.5,False,,male,,fr,140,0,0,2,1,2,0.0,--,--,--,--,--
Contrast Stuff,2022_Oct_13_1409,100,1200,1920,49,3,2.5,False,,male,,fr,141,0,0,1,1,2,0.0,--,--,--,--,--
Contrast Stuff,2022_Oct_13_1409,100,1200,1920,49,3,2.5,False,,male,,fr,142,0,0,2,0,2,0.0,--,--,--,--,--
Contrast Stuff,2022_Oct_13_1409,100,1200,1920,49,3,2.5,False,,male,,fr,143,0,0,2,0,2,0.0,--,--,--,--,--
Contrast Stuff,2022_Oct_13_1409,100,1200,1920,49,3,2.5,False,,male,,fr,144,0,0,1,0,2,0.0,--,--,--,--,--
Contrast Stuff,2022_Oct_13_1409,100,1200,1920,49,3,2.5,False,,male,,fr,145,0,0,2,0,2,0.0,--,--,--,--,--
Contrast Stuff,2022_Oct_13_1409,100,1200,1920,49,3,2.5,False,,male,,fr,146,0,0,2,1,2,0.0,--,--,--,--,--
Contrast Stuff,2022_Oct_13_1409,100,1200,1920,49,3,2.5,False,,male,,fr,147,0,0,2,0,2,0.0,--,--,--,--,--
Contrast Stuff,2022_Oct_13_1409,100,1200,1920,49,3,2.5,False,,male,,fr,148,0,0,2,1,2,0.0,--,--,--,--,--
Contrast Stuff,2022_Oct_13_1409,100,1200,1920,49,3,2.5,False,,male,,fr,149,0,0,2,0,2,0.0,--,--,--,--,--
Contrast Stuff,2022_Oct_13_1409,100,1200,1920,49,3,2.5,False,,male,,fr,150,0,0,1,0,2,0.0,--,--,--,--,--
Contrast Stuff,2022_Oct_13_1409,100,1200,1920,49,3,2.5,False,,male,,fr,151,0,0,1,0,2,0.0,--,--,--,--,--
Contrast Stuff,2022_Oct_13_1409,100,1200,1920,49,3,2.5,False,,male,,fr,152,0,0,2,0,2,0.0,--,--,--,--,--
Contrast Stuff,2022_Oct_13_1409,100,1200,1920,49,3,2.5,False,,male,,fr,153,0,0,1,1,2,0.0,--,--,--,--,--
Contrast Stuff,2022_Oct_13_1409,100,1200,1920,49,3,2.5,False,,male,,fr,154,0,0,1,0,2,0.0,--,--,--,--,--
Contrast Stuff,2022_Oct_13_1409,100,1200,1920,49,3,2.5,False,,male,,fr,155,0,0,2,1,2,0.0,--,--,--,--,--
Contrast Stuff,2022_Oct_13_1409,100,1200,1920,49,3,2.5,False,,male,,fr,156,0,0,2,0,2,0.0,--,--,--,--,--
Contrast Stuff,2022_Oct_13_1409,100,1200,1920,49,3,2.5,False,,male,,fr,157,0,0,1,0,2,0.0,--,--,--,--,--
Contrast Stuff,2022_Oct_13_1409,100,1200,1920,49,3,2.5,False,,male,,fr,158,0,0,1,0,2,0.0,--,--,--,--,--
Contrast Stuff,2022_Oct_13_1409,100,1200,1920,49,3,2.5,False,,male,,fr,159,0,0,1,1,2,0.0,--,--,--,--,--
Contrast Stuff,2022_Oct_13_1409,100,1200,1920,49,3,2.5,False,,male,,fr,160,0,0,2,1,2,0.0,--,--,--,--,--
Contrast Stuff,2022_Oct_13_1409,100,1200,1920,49,3,2.5,False,,male,,fr,161,361,0,1,0,3,0.0,--,--,--,--,--
Contrast Stuff,2022_Oct_13_1409,100,1200,1920,49,3,2.5,False,,male,,fr,162,361,0,2,1,3,0.0,--,--,--,--,--
Contrast Stuff,2022_Oct_13_1409,100,1200,1920,49,3,2.5,False,,male,,fr,163,361,0,1,1,3,0.0,--,--,--,--,--
Contrast Stuff,2022_Oct_13_1409,100,1200,1920,49,3,2.5,False,,male,,fr,164,361,0,1,0,3,0.0,--,--,--,--,--
Contrast Stuff,2022_Oct_13_1409,100,1200,1920,49,3,2.5,False,,male,,fr,165,361,0,2,0,3,0.0,--,--,--,--,--
Contrast Stuff,2022_Oct_13_1409,100,1200,1920,49,3,2.5,False,,male,,fr,166,361,0,1,1,3,0.0,--,--,--,--,--
Contrast Stuff,2022_Oct_13_1409,100,1200,1920,49,3,2.5,False,,male,,fr,167,361,0,1,1,3,0.0,--,--,--,--,--
Contrast Stuff,2022_Oct_13_1409,100,1200,1920,49,3,2.5,False,,male,,fr,168,361,0,1,1,3,0.0,--,--,--,--,--
Contrast Stuff,2022_Oct_13_1409,100,1200,1920,49,3,2.5,False,,male,,fr,169,361,0,2,1,3,0.0,--,--,--,--,--
Contrast Stuff,2022_Oct_13_1409,100,1200,1920,49,3,2.5,False,,male,,fr,170,361,0,1,0,3,0.0,--,--,--,--,--
Contrast Stuff,2022_Oct_13_1409,100,1200,1920,49,3,2.5,False,,male,,fr,171,361,0,2,0,3,0.0,--,--,--,--,--
Contrast Stuff,2022_Oct_13_1409,100,1200,1920,49,3,2.5,False,,male,,fr,172,361,0,2,1,3,0.0,--,--,--,--,--
Contrast Stuff,2022_Oct_13_1409,100,1200,1920,49,3,2.5,False,,male,,fr,173,361,0,2,0,3,0.0,--,--,--,--,--
Contrast Stuff,2022_Oct_13_1409,100,1200,1920,49,3,2.5,False,,male,,fr,174,361,0,2,0,3,0.0,--,--,--,--,--
Contrast Stuff,2022_Oct_13_1409,100,1200,1920,49,3,2.5,False,,male,,fr,175,361,0,2,0,3,0.0,--,--,--,--,--
Contrast Stuff,2022_Oct_13_1409,100,1200,1920,49,3,2.5,False,,male,,fr,176,361,0,1,0,3,0.0,--,--,--,--,--
Contrast Stuff,2022_Oct_13_1409,100,1200,1920,49,3,2.5,False,,male,,fr,177,361,0,2,0,3,0.0,--,--,--,--,--
Contrast Stuff,2022_Oct_13_1409,100,1200,1920,49,3,2.5,False,,male,,fr,178,361,0,1,0,3,0.0,--,--,--,--,--
Contrast Stuff,2022_Oct_13_1409,100,1200,1920,49,3,2.5,False,,male,,fr,179,361,0,1,1,3,0.0,--,--,--,--,--
Contrast Stuff,2022_Oct_13_1409,100,1200,1920,49,3,2.5,False,,male,,fr,180,361,0,2,1,3,0.0,--,--,--,--,--
Contrast Stuff,2022_Oct_13_1409,100,1200,1920,49,3,2.5,False,,male,,fr,181,361,0,2,0,3,0.0,--,--,--,--,--
Contrast Stuff,2022_Oct_13_1409,100,1200,1920,49,3,2.5,False,,male,,fr,182,361,0,2,0,3,0.0,--,--,--,--,--
Contrast Stuff,2022_Oct_13_1409,100,1200,1920,49,3,2.5,False,,male,,fr,183,361,0,2,0,3,0.0,--,--,--,--,--
Contrast Stuff,2022_Oct_13_1409,100,1200,1920,49,3,2.5,False,,male,,fr,184,361,0,2,1,3,0.0,--,--,--,--,--
Contrast Stuff,2022_Oct_13_1409,100,1200,1920,49,3,2.5,False,,male,,fr,185,361,0,1,0,3,0.0,--,--,--,--,--
Contrast Stuff,2022_Oct_13_1409,100,1200,1920,49,3,2.5,False,,male,,fr,186,361,0,1,1,3,0.0,--,--,--,--,--
Contrast Stuff,2022_Oct_13_1409,100,1200,1920,49,3,2.5,False,,male,,fr,187,361,0,2,1,3,0.0,--,--,--,--,--
Contrast Stuff,2022_Oct_13_1409,100,1200,1920,49,3,2.5,False,,male,,fr,188,361,0,2,0,3,0.0,--,--,--,--,--
Contrast Stuff,2022_Oct_13_1409,100,1200,1920,49,3,2.5,False,,male,,fr,189,361,0,1,1,3,0.0,--,--,--,--,--
Contrast Stuff,2022_Oct_13_1409,100,1200,1920,49,3,2.5,False,,male,,fr,190,361,0,1,0,3,0.0,--,--,--,--,--
Contrast Stuff,2022_Oct_13_1409,100,1200,1920,49,3,2.5,False,,male,,fr,191,361,0,2,0,3,0.0,--,--,--,--,--
Contrast Stuff,2022_Oct_13_1409,100,1200,1920,49,3,2.5,False,,male,,fr,192,361,0,1,1,3,0.0,--,--,--,--,--
Contrast Stuff,2022_Oct_13_1409,100,1200,1920,49,3,2.5,False,,male,,fr,193,361,0,2,0,3,0.0,--,--,--,--,--
Contrast Stuff,2022_Oct_13_1409,100,1200,1920,49,3,2.5,False,,male,,fr,194,361,0,1,1,3,0.0,--,--,--,--,--
Contrast Stuff,2022_Oct_13_1409,100,1200,1920,49,3,2.5,False,,male,,fr,195,361,0,1,1,3,0.0,--,--,--,--,--
Contrast Stuff,2022_Oct_13_1409,100,1200,1920,49,3,2.5,False,,male,,fr,196,361,0,1,0,3,0.0,--,--,--,--,--
Contrast Stuff,2022_Oct_13_1409,100,1200,1920,49,3,2.5,False,,male,,fr,197,361,0,2,1,3,0.0,--,--,--,--,--
Contrast Stuff,2022_Oct_13_1409,100,1200,1920,49,3,2.5,False,,male,,fr,198,361,0,1,0,3,0.0,--,--,--,--,--
Contrast Stuff,2022_Oct_13_1409,100,1200,1920,49,3,2.5,False,,male,,fr,199,361,0,2,1,3,0.0,--,--,--,--,--
Contrast Stuff,2022_Oct_13_1409,100,1200,1920,49,3,2.5,False,,male,,fr,200,361,0,2,0,3,0.0,--,--,--,--,--
Contrast Stuff,2022_Oct_13_1409,100,1200,1920,49,3,2.5,False,,male,,fr,201,361,0,1,1,3,0.0,--,--,--,--,--
Contrast Stuff,2022_Oct_13_1409,100,1200,1920,49,3,2.5,False,,male,,fr,202,361,0,1,0,3,0.0,--,--,--,--,--
Contrast Stuff,2022_Oct_13_1409,100,1200,1920,49,3,2.5,False,,male,,fr,203,361,0,1,0,3,0.0,--,--,--,--,--
Contrast Stuff,2022_Oct_13_1409,100,1200,1920,49,3,2.5,False,,male,,fr,204,361,0,2,1,3,0.0,--,--,--,--,--
Contrast Stuff,2022_Oct_13_1409,100,1200,1920,49,3,2.5,False,,male,,fr,205,361,0,2,1,3,0.0,--,--,--,--,--
Contrast Stuff,2022_Oct_13_1409,100,1200,1920,49,3,2.5,False,,male,,fr,206,361,0,2,1,3,0.0,--,--,--,--,--
Contrast Stuff,2022_Oct_13_1409,100,1200,1920,49,3,2.5,False,,male,,fr,207,361,0,1,1,3,0.0,--,--,--,--,--
Contrast Stuff,2022_Oct_13_1409,100,1200,1920,49,3,2.5,False,,male,,fr,208,361,0,2,0,3,0.0,--,--,--,--,--
Contrast Stuff,2022_Oct_13_1409,100,1200,1920,49,3,2.5,False,,male,,fr,209,361,0,2,1,3,0.0,--,--,--,--,--
Contrast Stuff,2022_Oct_13_1409,100,1200,1920,49,3,2.5,False,,male,,fr,210,361,0,2,0,3,0.0,--,--,--,--,--
Contrast Stuff,2022_Oct_13_1409,100,1200,1920,49,3,2.5,False,,male,,fr,211,361,0,2,0,3,0.0,--,--,--,--,--
Contrast Stuff,2022_Oct_13_1409,100,1200,1920,49,3,2.5,False,,male,,fr,212,361,0,1,1,3,0.0,--,--,--,--,--
Contrast Stuff,2022_Oct_13_1409,100,1200,1920,49,3,2.5,False,,male,,fr,213,361,0,2,1,3,0.0,--,--,--,--,--
Contrast Stuff,2022_Oct_13_1409,100,1200,1920,49,3,2.5,False,,male,,fr,214,361,0,1,1,3,0.0,--,--,--,--,--
Contrast Stuff,2022_Oct_13_1409,100,1200,1920,49,3,2.5,False,,male,,fr,215,361,0,1,0,3,0.0,--,--,--,--,--
Contrast Stuff,2022_Oct_13_1409,100,1200,1920,49,3,2.5,False,,male,,fr,216,361,0,2,1,3,0.0,--,--,--,--,--
Contrast Stuff,2022_Oct_13_1409,100,1200,1920,49,3,2.5,False,,male,,fr,217,361,0,2,0,3,0.0,--,--,--,--,--
Contrast Stuff,2022_Oct_13_1409,100,1200,1920,49,3,2.5,False,,male,,fr,218,361,0,2,0,3,0.0,--,--,--,--,--
Contrast Stuff,2022_Oct_13_1409,100,1200,1920,49,3,2.5,False,,male,,fr,219,361,0,1,0,3,0.0,--,--,--,--,--
Contrast Stuff,2022_Oct_13_1409,100,1200,1920,49,3,2.5,False,,male,,fr,220,361,0,1,1,3,0.0,--,--,--,--,--
Contrast Stuff,2022_Oct_13_1409,100,1200,1920,49,3,2.5,False,,male,,fr,221,361,0,1,1,3,0.0,--,--,--,--,--
Contrast Stuff,2022_Oct_13_1409,100,1200,1920,49,3,2.5,False,,male,,fr,222,361,0,1,1,3,0.0,--,--,--,--,--
Contrast Stuff,2022_Oct_13_1409,100,1200,1920,49,3,2.5,False,,male,,fr,223,361,0,2,1,3,0.0,--,--,--,--,--
Contrast Stuff,2022_Oct_13_1409,100,1200,1920,49,3,2.5,False,,male,,fr,224,361,0,2,0,3,0.0,--,--,--,--,--
Contrast Stuff,2022_Oct_13_1409,100,1200,1920,49,3,2.5,False,,male,,fr,225,361,0,1,0,3,0.0,--,--,--,--,--
Contrast Stuff,2022_Oct_13_1409,100,1200,1920,49,3,2.5,False,,male,,fr,226,361,0,1,0,3,0.0,--,--,--,--,--
Contrast Stuff,2022_Oct_13_1409,100,1200,1920,49,3,2.5,False,,male,,fr,227,361,0,2,0,3,0.0,--,--,--,--,--
Contrast Stuff,2022_Oct_13_1409,100,1200,1920,49,3,2.5,False,,male,,fr,228,361,0,1,1,3,0.0,--,--,--,--,--
Contrast Stuff,2022_Oct_13_1409,100,1200,1920,49,3,2.5,False,,male,,fr,229,361,0,1,0,3,0.0,--,--,--,--,--
Contrast Stuff,2022_Oct_13_1409,100,1200,1920,49,3,2.5,False,,male,,fr,230,361,0,1,0,3,0.0,--,--,--,--,--
Contrast Stuff,2022_Oct_13_1409,100,1200,1920,49,3,2.5,False,,male,,fr,231,361,0,2,1,3,0.0,--,--,--,--,--
Contrast Stuff,2022_Oct_13_1409,100,1200,1920,49,3,2.5,False,,male,,fr,232,361,0,2,1,3,0.0,--,--,--,--,--
Contrast Stuff,2022_Oct_13_1409,100,1200,1920,49,3,2.5,False,,male,,fr,233,361,0,2,1,3,0.0,--,--,--,--,--
Contrast Stuff,2022_Oct_13_1409,100,1200,1920,49,3,2.5,False,,male,,fr,234,361,0,2,1,3,0.0,--,--,--,--,--
Contrast Stuff,2022_Oct_13_1409,100,1200,1920,49,3,2.5,False,,male,,fr,235,361,0,1,0,3,0.0,--,--,--,--,--
Contrast Stuff,2022_Oct_13_1409,100,1200,1920,49,3,2.5,False,,male,,fr,236,361,0,1,0,3,0.0,--,--,--,--,--
Contrast Stuff,2022_Oct_13_1409,100,1200,1920,49,3,2.5,False,,male,,fr,237,361,0,1,1,3,0.0,--,--,--,--,--
Contrast Stuff,2022_Oct_13_1409,100,1200,1920,49,3,2.5,False,,male,,fr,238,361,0,2,1,3,0.0,--,--,--,--,--
Contrast Stuff,2022_Oct_13_1409,100,1200,1920,49,3,2.5,False,,male,,fr,239,361,0,1,0,3,0.0,--,--,--,--,--
Contrast Stuff,2022_Oct_13_1409,100,1200,1920,49,3,2.5,False,,male,,fr,240,361,0,1,1,3,0.0,--,--,--,--,--
Contrast Stuff,2022_Oct_13_1409,100,1200,1920,49,3,2.5,False,,male,,fr,241,361,0,1,0,3,0.0,--,--,--,--,--
Contrast Stuff,2022_Oct_13_1409,100,1200,1920,49,3,2.5,False,,male,,fr,242,361,0,2,1,3,0.0,--,--,--,--,--
Contrast Stuff,2022_Oct_13_1409,100,1200,1920,49,3,2.5,False,,male,,fr,243,361,0,1,1,3,0.0,--,--,--,--,--
Contrast Stuff,2022_Oct_13_1409,100,1200,1920,49,3,2.5,False,,male,,fr,244,361,0,1,0,3,0.0,--,--,--,--,--
Contrast Stuff,2022_Oct_13_1409,100,1200,1920,49,3,2.5,False,,male,,fr,245,361,0,2,0,3,0.0,--,--,--,--,--
Contrast Stuff,2022_Oct_13_1409,100,1200,1920,49,3,2.5,False,,male,,fr,246,361,0,1,1,3,0.0,--,--,--,--,--
Contrast Stuff,2022_Oct_13_1409,100,1200,1920,49,3,2.5,False,,male,,fr,247,361,0,1,1,3,0.0,--,--,--,--,--
Contrast Stuff,2022_Oct_13_1409,100,1200,1920,49,3,2.5,False,,male,,fr,248,361,0,1,1,3,0.0,--,--,--,--,--
Contrast Stuff,2022_Oct_13_1409,100,1200,1920,49,3,2.5,False,,male,,fr,249,361,0,2,1,3,0.0,--,--,--,--,--
Contrast Stuff,2022_Oct_13_1409,100,1200,1920,49,3,2.5,False,,male,,fr,250,361,0,1,0,3,0.0,--,--,--,--,--
Contrast Stuff,2022_Oct_13_1409,100,1200,1920,49,3,2.5,False,,male,,fr,251,361,0,2,0,3,0.0,--,--,--,--,--
Contrast Stuff,2022_Oct_13_1409,100,1200,1920,49,3,2.5,False,,male,,fr,252,361,0,2,1,3,0.0,--,--,--,--,--
Contrast Stuff,2022_Oct_13_1409,100,1200,1920,49,3,2.5,False,,male,,fr,253,361,0,2,0,3,0.0,--,--,--,--,--
Contrast Stuff,2022_Oct_13_1409,100,1200,1920,49,3,2.5,False,,male,,fr,254,361,0,2,0,3,0.0,--,--,--,--,--
Contrast Stuff,2022_Oct_13_1409,100,1200,1920,49,3,2.5,False,,male,,fr,255,361,0,2,0,3,0.0,--,--,--,--,--
Contrast Stuff,2022_Oct_13_1409,100,1200,1920,49,3,2.5,False,,male,,fr,256,361,0,1,0,3,0.0,--,--,--,--,--
Contrast Stuff,2022_Oct_13_1409,100,1200,1920,49,3,2.5,False,,male,,fr,257,361,0,2,0,3,0.0,--,--,--,--,--
Contrast Stuff,2022_Oct_13_1409,100,1200,1920,49,3,2.5,False,,male,,fr,258,361,0,1,0,3,0.0,--,--,--,--,--
Contrast Stuff,2022_Oct_13_1409,100,1200,1920,49,3,2.5,False,,male,,fr,259,361,0,1,1,3,0.0,--,--,--,--,--
Contrast Stuff,2022_Oct_13_1409,100,1200,1920,49,3,2.5,False,,male,,fr,260,361,0,2,1,3,0.0,--,--,--,--,--
Contrast Stuff,2022_Oct_13_1409,100,1200,1920,49,3,2.5,False,,male,,fr,261,361,0,2,0,3,0.0,--,--,--,--,--
Contrast Stuff,2022_Oct_13_1409,100,1200,1920,49,3,2.5,False,,male,,fr,262,361,0,2,0,3,0.0,--,--,--,--,--
Contrast Stuff,2022_Oct_13_1409,100,1200,1920,49,3,2.5,False,,male,,fr,263,361,0,2,0,3,0.0,--,--,--,--,--
Contrast Stuff,2022_Oct_13_1409,100,1200,1920,49,3,2.5,False,,male,,fr,264,361,0,2,1,3,0.0,--,--,--,--,--
Contrast Stuff,2022_Oct_13_1409,100,1200,1920,49,3,2.5,False,,male,,fr,265,361,0,1,0,3,0.0,--,--,--,--,--
Contrast Stuff,2022_Oct_13_1409,100,1200,1920,49,3,2.5,False,,male,,fr,266,361,0,1,1,3,0.0,--,--,--,--,--
Contrast Stuff,2022_Oct_13_1409,100,1200,1920,49,3,2.5,False,,male,,fr,267,361,0,2,1,3,0.0,--,--,--,--,--
Contrast Stuff,2022_Oct_13_1409,100,1200,1920,49,3,2.5,False,,male,,fr,268,361,0,2,0,3,0.0,--,--,--,--,--
Contrast Stuff,2022_Oct_13_1409,100,1200,1920,49,3,2.5,False,,male,,fr,269,361,0,1,1,3,0.0,--,--,--,--,--
Contrast Stuff,2022_Oct_13_1409,100,1200,1920,49,3,2.5,False,,male,,fr,270,361,0,1,0,3,0.0,--,--,--,--,--
Contrast Stuff,2022_Oct_13_1409,100,1200,1920,49,3,2.5,False,,male,,fr,271,361,0,2,0,3,0.0,--,--,--,--,--
Contrast Stuff,2022_Oct_13_1409,100,1200,1920,49,3,2.5,False,,male,,fr,272,361,0,1,1,3,0.0,--,--,--,--,--
Contrast Stuff,2022_Oct_13_1409,100,1200,1920,49,3,2.5,False,,male,,fr,273,361,0,2,0,3,0.0,--,--,--,--,--
Contrast Stuff,2022_Oct_13_1409,100,1200,1920,49,3,2.5,False,,male,,fr,274,361,0,1,1,3,0.0,--,--,--,--,--
Contrast Stuff,2022_Oct_13_1409,100,1200,1920,49,3,2.5,False,,male,,fr,275,361,0,1,1,3,0.0,--,--,--,--,--
Contrast Stuff,2022_Oct_13_1409,100,1200,1920,49,3,2.5,False,,male,,fr,276,361,0,1,0,3,0.0,--,--,--,--,--
Contrast Stuff,2022_Oct_13_1409,100,1200,1920,49,3,2.5,False,,male,,fr,277,361,0,2,1,3,0.0,--,--,--,--,--
Contrast Stuff,2022_Oct_13_1409,100,1200,1920,49,3,2.5,False,,male,,fr,278,361,0,1,0,3,0.0,--,--,--,--,--
Contrast Stuff,2022_Oct_13_1409,100,1200,1920,49,3,2.5,False,,male,,fr,279,361,0,2,1,3,0.0,--,--,--,--,--
Contrast Stuff,2022_Oct_13_1409,100,1200,1920,49,3,2.5,False,,male,,fr,280,361,0,2,0,3,0.0,--,--,--,--,--
Contrast Stuff,2022_Oct_13_1409,100,1200,1920,49,3,2.5,False,,male,,fr,281,361,0,1,1,3,0.0,--,--,--,--,--
Contrast Stuff,2022_Oct_13_1409,100,1200,1920,49,3,2.5,False,,male,,fr,282,361,0,1,0,3,0.0,--,--,--,--,--
Contrast Stuff,2022_Oct_13_1409,100,1200,1920,49,3,2.5,False,,male,,fr,283,361,0,1,0,3,0.0,--,--,--,--,--
Contrast Stuff,2022_Oct_13_1409,100,1200,1920,49,3,2.5,False,,male,,fr,284,361,0,2,1,3,0.0,--,--,--,--,--
Contrast Stuff,2022_Oct_13_1409,100,1200,1920,49,3,2.5,False,,male,,fr,285,361,0,2,1,3,0.0,--,--,--,--,--
Contrast Stuff,2022_Oct_13_1409,100,1200,1920,49,3,2.5,False,,male,,fr,286,361,0,2,1,3,0.0,--,--,--,--,--
Contrast Stuff,2022_Oct_13_1409,100,1200,1920,49,3,2.5,False,,male,,fr,287,361,0,1,1,3,0.0,--,--,--,--,--
Contrast Stuff,2022_Oct_13_1409,100,1200,1920,49,3,2.5,False,,male,,fr,288,361,0,2,0,3,0.0,--,--,--,--,--
Contrast Stuff,2022_Oct_13_1409,100,1200,1920,49,3,2.5,False,,male,,fr,289,361,0,2,1,3,0.0,--,--,--,--,--
Contrast Stuff,2022_Oct_13_1409,100,1200,1920,49,3,2.5,False,,male,,fr,290,361,0,2,0,3,0.0,--,--,--,--,--
Contrast Stuff,2022_Oct_13_1409,100,1200,1920,49,3,2.5,False,,male,,fr,291,361,0,2,0,3,0.0,--,--,--,--,--
Contrast Stuff,2022_Oct_13_1409,100,1200,1920,49,3,2.5,False,,male,,fr,292,361,0,1,1,3,0.0,--,--,--,--,--
Contrast Stuff,2022_Oct_13_1409,100,1200,1920,49,3,2.5,False,,male,,fr,293,361,0,2,1,3,0.0,--,--,--,--,--
Contrast Stuff,2022_Oct_13_1409,100,1200,1920,49,3,2.5,False,,male,,fr,294,361,0,1,1,3,0.0,--,--,--,--,--
Contrast Stuff,2022_Oct_13_1409,100,1200,1920,49,3,2.5,False,,male,,fr,295,361,0,1,0,3,0.0,--,--,--,--,--
Contrast Stuff,2022_Oct_13_1409,100,1200,1920,49,3,2.5,False,,male,,fr,296,361,0,2,1,3,0.0,--,--,--,--,--
Contrast Stuff,2022_Oct_13_1409,100,1200,1920,49,3,2.5,False,,male,,fr,297,361,0,2,0,3,0.0,--,--,--,--,--
Contrast Stuff,2022_Oct_13_1409,100,1200,1920,49,3,2.5,False,,male,,fr,298,361,0,2,0,3,0.0,--,--,--,--,--
Contrast Stuff,2022_Oct_13_1409,100,1200,1920,49,3,2.5,False,,male,,fr,299,361,0,1,0,3,0.0,--,--,--,--,--
Contrast Stuff,2022_Oct_13_1409,100,1200,1920,49,3,2.5,False,,male,,fr,300,361,0,1,1,3,0.0,--,--,--,--,--
Contrast Stuff,2022_Oct_13_1409,100,1200,1920,49,3,2.5,False,,male,,fr,301,361,0,1,1,3,0.0,--,--,--,--,--
Contrast Stuff,2022_Oct_13_1409,100,1200,1920,49,3,2.5,False,,male,,fr,302,361,0,1,1,3,0.0,--,--,--,--,--
Contrast Stuff,2022_Oct_13_1409,100,1200,1920,49,3,2.5,False,,male,,fr,303,361,0,2,1,3,0.0,--,--,--,--,--
Contrast Stuff,2022_Oct_13_1409,100,1200,1920,49,3,2.5,False,,male,,fr,304,361,0,2,0,3,0.0,--,--,--,--,--
Contrast Stuff,2022_Oct_13_1409,100,1200,1920,49,3,2.5,False,,male,,fr,305,361,0,1,0,3,0.0,--,--,--,--,--
Contrast Stuff,2022_Oct_13_1409,100,1200,1920,49,3,2.5,False,,male,,fr,306,361,0,1,0,3,0.0,--,--,--,--,--
Contrast Stuff,2022_Oct_13_1409,100,1200,1920,49,3,2.5,False,,male,,fr,307,361,0,2,0,3,0.0,--,--,--,--,--
Contrast Stuff,2022_Oct_13_1409,100,1200,1920,49,3,2.5,False,,male,,fr,308,361,0,1,1,3,0.0,--,--,--,--,--
Contrast Stuff,2022_Oct_13_1409,100,1200,1920,49,3,2.5,False,,male,,fr,309,361,0,1,0,3,0.0,--,--,--,--,--
Contrast Stuff,2022_Oct_13_1409,100,1200,1920,49,3,2.5,False,,male,,fr,310,361,0,1,0,3,0.0,--,--,--,--,--
Contrast Stuff,2022_Oct_13_1409,100,1200,1920,49,3,2.5,False,,male,,fr,311,361,0,2,1,3,0.0,--,--,--,--,--
Contrast Stuff,2022_Oct_13_1409,100,1200,1920,49,3,2.5,False,,male,,fr,312,361,0,2,1,3,0.0,--,--,--,--,--
Contrast Stuff,2022_Oct_13_1409,100,1200,1920,49,3,2.5,False,,male,,fr,313,361,0,2,1,3,0.0,--,--,--,--,--
Contrast Stuff,2022_Oct_13_1409,100,1200,1920,49,3,2.5,False,,male,,fr,314,361,0,2,1,3,0.0,--,--,--,--,--
Contrast Stuff,2022_Oct_13_1409,100,1200,1920,49,3,2.5,False,,male,,fr,315,361,0,1,0,3,0.0,--,--,--,--,--
Contrast Stuff,2022_Oct_13_1409,100,1200,1920,49,3,2.5,False,,male,,fr,316,361,0,1,0,3,0.0,--,--,--,--,--
Contrast Stuff,2022_Oct_13_1409,100,1200,1920,49,3,2.5,False,,male,,fr,317,361,0,1,1,3,0.0,--,--,--,--,--
Contrast Stuff,2022_Oct_13_1409,100,1200,1920,49,3,2.5,False,,male,,fr,318,361,0,2,1,3,0.0,--,--,--,--,--
Contrast Stuff,2022_Oct_13_1409,100,1200,1920,49,3,2.5,False,,male,,fr,319,361,0,1,0,3,0.0,--,--,--,--,--
Contrast Stuff,2022_Oct_13_1409,100,1200,1920,49,3,2.5,False,,male,,fr,320,361,0,1,1,3,0.0,--,--,--,--,--
Contrast Stuff,2022_Oct_13_1409,100,1200,1920,49,3,2.5,False,,male,,fr,321,90,0,1,0,1,0.0,--,--,--,--,--
Contrast Stuff,2022_Oct_13_1409,100,1200,1920,49,3,2.5,False,,male,,fr,322,90,0,2,0,1,0.0,--,--,--,--,--
Contrast Stuff,2022_Oct_13_1409,100,1200,1920,49,3,2.5,False,,male,,fr,323,90,0,1,0,1,0.0,--,--,--,--,--
Contrast Stuff,2022_Oct_13_1409,100,1200,1920,49,3,2.5,False,,male,,fr,324,90,0,1,0,1,0.0,--,--,--,--,--
Contrast Stuff,2022_Oct_13_1409,100,1200,1920,49,3,2.5,False,,male,,fr,325,90,0,2,0,1,0.0,--,--,--,--,--
Contrast Stuff,2022_Oct_13_1409,100,1200,1920,49,3,2.5,False,,male,,fr,326,90,0,1,1,1,0.0,--,--,--,--,--
Contrast Stuff,2022_Oct_13_1409,100,1200,1920,49,3,2.5,False,,male,,fr,327,90,0,1,0,1,0.0,--,--,--,--,--
Contrast Stuff,2022_Oct_13_1409,100,1200,1920,49,3,2.5,False,,male,,fr,328,90,0,2,0,1,0.0,--,--,--,--,--
Contrast Stuff,2022_Oct_13_1409,100,1200,1920,49,3,2.5,False,,male,,fr,329,90,0,2,1,1,0.0,--,--,--,--,--
Contrast Stuff,2022_Oct_13_1409,100,1200,1920,49,3,2.5,False,,male,,fr,330,90,0,1,1,1,0.0,--,--,--,--,--
Contrast Stuff,2022_Oct_13_1409,100,1200,1920,49,3,2.5,False,,male,,fr,331,90,0,2,1,1,0.0,--,--,--,--,--
Contrast Stuff,2022_Oct_13_1409,100,1200,1920,49,3,2.5,False,,male,,fr,332,90,0,2,0,1,0.0,--,--,--,--,--
Contrast Stuff,2022_Oct_13_1409,100,1200,1920,49,3,2.5,False,,male,,fr,333,90,0,2,1,1,0.0,--,--,--,--,--
Contrast Stuff,2022_Oct_13_1409,100,1200,1920,49,3,2.5,False,,male,,fr,334,90,0,1,0,1,0.0,--,--,--,--,--
Contrast Stuff,2022_Oct_13_1409,100,1200,1920,49,3,2.5,False,,male,,fr,335,90,0,1,1,1,0.0,--,--,--,--,--
Contrast Stuff,2022_Oct_13_1409,100,1200,1920,49,3,2.5,False,,male,,fr,336,90,0,1,1,1,0.0,--,--,--,--,--
Contrast Stuff,2022_Oct_13_1409,100,1200,1920,49,3,2.5,False,,male,,fr,337,90,0,1,1,1,0.0,--,--,--,--,--
Contrast Stuff,2022_Oct_13_1409,100,1200,1920,49,3,2.5,False,,male,,fr,338,90,0,2,1,1,0.0,--,--,--,--,--
Contrast Stuff,2022_Oct_13_1409,100,1200,1920,49,3,2.5,False,,male,,fr,339,90,0,1,0,1,0.0,--,--,--,--,--
Contrast Stuff,2022_Oct_13_1409,100,1200,1920,49,3,2.5,False,,male,,fr,340,90,0,1,0,1,0.0,--,--,--,--,--
Contrast Stuff,2022_Oct_13_1409,100,1200,1920,49,3,2.5,False,,male,,fr,341,90,0,2,1,1,0.0,--,--,--,--,--
Contrast Stuff,2022_Oct_13_1409,100,1200,1920,49,3,2.5,False,,male,,fr,342,90,0,2,1,1,0.0,--,--,--,--,--
Contrast Stuff,2022_Oct_13_1409,100,1200,1920,49,3,2.5,False,,male,,fr,343,90,0,2,0,1,0.0,--,--,--,--,--
Contrast Stuff,2022_Oct_13_1409,100,1200,1920,49,3,2.5,False,,male,,fr,344,90,0,1,1,1,0.0,--,--,--,--,--
Contrast Stuff,2022_Oct_13_1409,100,1200,1920,49,3,2.5,False,,male,,fr,345,90,0,2,0,1,0.0,--,--,--,--,--
Contrast Stuff,2022_Oct_13_1409,100,1200,1920,49,3,2.5,False,,male,,fr,346,90,0,1,1,1,0.0,--,--,--,--,--
Contrast Stuff,2022_Oct_13_1409,100,1200,1920,49,3,2.5,False,,male,,fr,347,90,0,2,0,1,0.0,--,--,--,--,--
Contrast Stuff,2022_Oct_13_1409,100,1200,1920,49,3,2.5,False,,male,,fr,348,90,0,1,0,1,0.0,--,--,--,--,--
Contrast Stuff,2022_Oct_13_1409,100,1200,1920,49,3,2.5,False,,male,,fr,349,90,0,2,0,1,0.0,--,--,--,--,--
Contrast Stuff,2022_Oct_13_1409,100,1200,1920,49,3,2.5,False,,male,,fr,350,90,0,1,0,1,0.0,--,--,--,--,--
Contrast Stuff,2022_Oct_13_1409,100,1200,1920,49,3,2.5,False,,male,,fr,351,90,0,1,1,1,0.0,--,--,--,--,--
Contrast Stuff,2022_Oct_13_1409,100,1200,1920,49,3,2.5,False,,male,,fr,352,90,0,1,1,1,0.0,--,--,--,--,--
Contrast Stuff,2022_Oct_13_1409,100,1200,1920,49,3,2.5,False,,male,,fr,353,90,0,1,0,1,0.0,--,--,--,--,--
Contrast Stuff,2022_Oct_13_1409,100,1200,1920,49,3,2.5,False,,male,,fr,354,90,0,1,1,1,0.0,--,--,--,--,--
Contrast Stuff,2022_Oct_13_1409,100,1200,1920,49,3,2.5,False,,male,,fr,355,90,0,2,0,1,0.0,--,--,--,--,--
Contrast Stuff,2022_Oct_13_1409,100,1200,1920,49,3,2.5,False,,male,,fr,356,90,0,1,0,1,0.0,--,--,--,--,--
Contrast Stuff,2022_Oct_13_1409,100,1200,1920,49,3,2.5,False,,male,,fr,357,90,0,2,1,1,0.0,--,--,--,--,--
Contrast Stuff,2022_Oct_13_1409,100,1200,1920,49,3,2.5,False,,male,,fr,358,90,0,2,1,1,0.0,--,--,--,--,--
Contrast Stuff,2022_Oct_13_1409,100,1200,1920,49,3,2.5,False,,male,,fr,359,90,0,2,0,1,0.0,--,--,--,--,--
Contrast Stuff,2022_Oct_13_1409,100,1200,1920,49,3,2.5,False,,male,,fr,360,90,0,1,1,1,0.0,--,--,--,--,--
Contrast Stuff,2022_Oct_13_1409,100,1200,1920,49,3,2.5,False,,male,,fr,361,90,0,1,0,1,0.0,--,--,--,--,--
Contrast Stuff,2022_Oct_13_1409,100,1200,1920,49,3,2.5,False,,male,,fr,362,90,0,2,1,1,0.0,--,--,--,--,--
Contrast Stuff,2022_Oct_13_1409,100,1200,1920,49,3,2.5,False,,male,,fr,363,90,0,1,1,1,0.0,--,--,--,--,--
Contrast Stuff,2022_Oct_13_1409,100,1200,1920,49,3,2.5,False,,male,,fr,364,90,0,2,0,1,0.0,--,--,--,--,--
Contrast Stuff,2022_Oct_13_1409,100,1200,1920,49,3,2.5,False,,male,,fr,365,90,0,2,1,1,0.0,--,--,--,--,--
Contrast Stuff,2022_Oct_13_1409,100,1200,1920,49,3,2.5,False,,male,,fr,366,90,0,2,1,1,0.0,--,--,--,--,--
Contrast Stuff,2022_Oct_13_1409,100,1200,1920,49,3,2.5,False,,male,,fr,367,90,0,2,0,1,0.0,--,--,--,--,--
Contrast Stuff,2022_Oct_13_1409,100,1200,1920,49,3,2.5,False,,male,,fr,368,90,0,2,0,1,0.0,--,--,--,--,--
Contrast Stuff,2022_Oct_13_1409,100,1200,1920,49,3,2.5,False,,male,,fr,369,90,0,1,1,1,0.0,--,--,--,--,--
Contrast Stuff,2022_Oct_13_1409,100,1200,1920,49,3,2.5,False,,male,,fr,370,90,0,1,0,1,0.0,--,--,--,--,--
Contrast Stuff,2022_Oct_13_1409,100,1200,1920,49,3,2.5,False,,male,,fr,371,90,0,2,0,1,0.0,--,--,--,--,--
Contrast Stuff,2022_Oct_13_1409,100,1200,1920,49,3,2.5,False,,male,,fr,372,90,0,2,1,1,0.0,--,--,--,--,--
Contrast Stuff,2022_Oct_13_1409,100,1200,1920,49,3,2.5,False,,male,,fr,373,90,0,2,1,1,0.0,--,--,--,--,--
Contrast Stuff,2022_Oct_13_1409,100,1200,1920,49,3,2.5,False,,male,,fr,374,90,0,2,0,1,0.0,--,--,--,--,--
Contrast Stuff,2022_Oct_13_1409,100,1200,1920,49,3,2.5,False,,male,,fr,375,90,0,2,0,1,0.0,--,--,--,--,--
Contrast Stuff,2022_Oct_13_1409,100,1200,1920,49,3,2.5,False,,male,,fr,376,90,0,1,0,1,0.0,--,--,--,--,--
Contrast Stuff,2022_Oct_13_1409,100,1200,1920,49,3,2.5,False,,male,,fr,377,90,0,1,1,1,0.0,--,--,--,--,--
Contrast Stuff,2022_Oct_13_1409,100,1200,1920,49,3,2.5,False,,male,,fr,378,90,0,1,1,1,0.0,--,--,--,--,--
Contrast Stuff,2022_Oct_13_1409,100,1200,1920,49,3,2.5,False,,male,,fr,379,90,0,1,1,1,0.0,--,--,--,--,--
Contrast Stuff,2022_Oct_13_1409,100,1200,1920,49,3,2.5,False,,male,,fr,380,90,0,1,0,1,0.0,--,--,--,--,--
Contrast Stuff,2022_Oct_13_1409,100,1200,1920,49,3,2.5,False,,male,,fr,381,90,0,1,0,1,0.0,--,--,--,--,--
Contrast Stuff,2022_Oct_13_1409,100,1200,1920,49,3,2.5,False,,male,,fr,382,90,0,1,0,1,0.0,--,--,--,--,--
Contrast Stuff,2022_Oct_13_1409,100,1200,1920,49,3,2.5,False,,male,,fr,383,90,0,1,1,1,0.0,--,--,--,--,--
Contrast Stuff,2022_Oct_13_1409,100,1200,1920,49,3,2.5,False,,male,,fr,384,90,0,1,0,1,0.0,--,--,--,--,--
Contrast Stuff,2022_Oct_13_1409,100,1200,1920,49,3,2.5,False,,male,,fr,385,90,0,2,1,1,0.0,--,--,--,--,--
Contrast Stuff,2022_Oct_13_1409,100,1200,1920,49,3,2.5,False,,male,,fr,386,90,0,2,1,1,0.0,--,--,--,--,--
Contrast Stuff,2022_Oct_13_1409,100,1200,1920,49,3,2.5,False,,male,,fr,387,90,0,2,1,1,0.0,--,--,--,--,--
Contrast Stuff,2022_Oct_13_1409,100,1200,1920,49,3,2.5,False,,male,,fr,388,90,0,2,0,1,0.0,--,--,--,--,--
Contrast Stuff,2022_Oct_13_1409,100,1200,1920,49,3,2.5,False,,male,,fr,389,90,0,2,0,1,0.0,--,--,--,--,--
Contrast Stuff,2022_Oct_13_1409,100,1200,1920,49,3,2.5,False,,male,,fr,390,90,0,1,1,1,0.0,--,--,--,--,--
Contrast Stuff,2022_Oct_13_1409,100,1200,1920,49,3,2.5,False,,male,,fr,391,90,0,1,0,1,0.0,--,--,--,--,--
Contrast Stuff,2022_Oct_13_1409,100,1200,1920,49,3,2.5,False,,male,,fr,392,90,0,2,1,1,0.0,--,--,--,--,--
Contrast Stuff,2022_Oct_13_1409,100,1200,1920,49,3,2.5,False,,male,,fr,393,90,0,2,0,1,0.0,--,--,--,--,--
Contrast Stuff,2022_Oct_13_1409,100,1200,1920,49,3,2.5,False,,male,,fr,394,90,0,1,1,1,0.0,--,--,--,--,--
Contrast Stuff,2022_Oct_13_1409,100,1200,1920,49,3,2.5,False,,male,,fr,395,90,0,2,1,1,0.0,--,--,--,--,--
Contrast Stuff,2022_Oct_13_1409,100,1200,1920,49,3,2.5,False,,male,,fr,396,90,0,2,1,1,0.0,--,--,--,--,--
Contrast Stuff,2022_Oct_13_1409,100,1200,1920,49,3,2.5,False,,male,,fr,397,90,0,2,0,1,0.0,--,--,--,--,--
Contrast Stuff,2022_Oct_13_1409,100,1200,1920,49,3,2.5,False,,male,,fr,398,90,0,1,0,1,0.0,--,--,--,--,--
Contrast Stuff,2022_Oct_13_1409,100,1200,1920,49,3,2.5,False,,male,,fr,399,90,0,1,1,1,0.0,--,--,--,--,--
Contrast Stuff,2022_Oct_13_1409,100,1200,1920,49,3,2.5,False,,male,,fr,400,90,0,2,1,1,0.0,--,--,--,--,--
Contrast Stuff,2022_Oct_13_1409,100,1200,1920,49,3,2.5,False,,male,,fr,401,0,0,1,1,2,0.0,--,--,--,--,--
Contrast Stuff,2022_Oct_13_1409,100,1200,1920,49,3,2.5,False,,male,,fr,402,0,0,1,0,2,0.0,--,--,--,--,--
Contrast Stuff,2022_Oct_13_1409,100,1200,1920,49,3,2.5,False,,male,,fr,403,0,0,1,0,2,0.0,--,--,--,--,--
Contrast Stuff,2022_Oct_13_1409,100,1200,1920,49,3,2.5,False,,male,,fr,404,0,0,2,0,2,0.0,--,--,--,--,--
Contrast Stuff,2022_Oct_13_1409,100,1200,1920,49,3,2.5,False,,male,,fr,405,0,0,1,1,2,0.0,--,--,--,--,--
Contrast Stuff,2022_Oct_13_1409,100,1200,1920,49,3,2.5,False,,male,,fr,406,0,0,1,0,2,0.0,--,--,--,--,--
Contrast Stuff,2022_Oct_13_1409,100,1200,1920,49,3,2.5,False,,male,,fr,407,0,0,2,1,2,0.0,--,--,--,--,--
Contrast Stuff,2022_Oct_13_1409,100,1200,1920,49,3,2.5,False,,male,,fr,408,0,0,2,0,2,0.0,--,--,--,--,--
Contrast Stuff,2022_Oct_13_1409,100,1200,1920,49,3,2.5,False,,male,,fr,409,0,0,2,0,2,0.0,--,--,--,--,--
Contrast Stuff,2022_Oct_13_1409,100,1200,1920,49,3,2.5,False,,male,,fr,410,0,0,1,0,2,0.0,--,--,--,--,--
Contrast Stuff,2022_Oct_13_1409,100,1200,1920,49,3,2.5,False,,male,,fr,411,0,0,2,1,2,0.0,--,--,--,--,--
Contrast Stuff,2022_Oct_13_1409,100,1200,1920,49,3,2.5,False,,male,,fr,412,0,0,2,1,2,0.0,--,--,--,--,--
Contrast Stuff,2022_Oct_13_1409,100,1200,1920,49,3,2.5,False,,male,,fr,413,0,0,1,1,2,0.0,--,--,--,--,--
Contrast Stuff,2022_Oct_13_1409,100,1200,1920,49,3,2.5,False,,male,,fr,414,0,0,1,1,2,0.0,--,--,--,--,--
Contrast Stuff,2022_Oct_13_1409,100,1200,1920,49,3,2.5,False,,male,,fr,415,0,0,1,0,2,0.0,--,--,--,--,--
Contrast Stuff,2022_Oct_13_1409,100,1200,1920,49,3,2.5,False,,male,,fr,416,0,0,2,0,2,0.0,--,--,--,--,--
Contrast Stuff,2022_Oct_13_1409,100,1200,1920,49,3,2.5,False,,male,,fr,417,0,0,1,0,2,0.0,--,--,--,--,--
Contrast Stuff,2022_Oct_13_1409,100,1200,1920,49,3,2.5,False,,male,,fr,418,0,0,1,1,2,0.0,--,--,--,--,--
Contrast Stuff,2022_Oct_13_1409,100,1200,1920,49,3,2.5,False,,male,,fr,419,0,0,2,1,2,0.0,--,--,--,--,--
Contrast Stuff,2022_Oct_13_1409,100,1200,1920,49,3,2.5,False,,male,,fr,420,0,0,2,0,2,0.0,--,--,--,--,--
Contrast Stuff,2022_Oct_13_1409,100,1200,1920,49,3,2.5,False,,male,,fr,421,0,0,1,1,2,0.0,--,--,--,--,--
Contrast Stuff,2022_Oct_13_1409,100,1200,1920,49,3,2.5,False,,male,,fr,422,0,0,1,1,2,0.0,--,--,--,--,--
Contrast Stuff,2022_Oct_13_1409,100,1200,1920,49,3,2.5,False,,male,,fr,423,0,0,1,0,2,0.0,--,--,--,--,--
Contrast Stuff,2022_Oct_13_1409,100,1200,1920,49,3,2.5,False,,male,,fr,424,0,0,2,0,2,0.0,--,--,--,--,--
Contrast Stuff,2022_Oct_13_1409,100,1200,1920,49,3,2.5,False,,male,,fr,425,0,0,1,0,2,0.0,--,--,--,--,--
Contrast Stuff,2022_Oct_13_1409,100,1200,1920,49,3,2.5,False,,male,,fr,426,0,0,1,0,2,0.0,--,--,--,--,--
Contrast Stuff,2022_Oct_13_1409,100,1200,1920,49,3,2.5,False,,male,,fr,427,0,0,2,1,2,0.0,--,--,--,--,--
Contrast Stuff,2022_Oct_13_1409,100,1200,1920,49,3,2.5,False,,male,,fr,428,0,0,2,1,2,0.0,--,--,--,--,--
Contrast Stuff,2022_Oct_13_1409,100,1200,1920,49,3,2.5,False,,male,,fr,429,0,0,1,0,2,0.0,--,--,--,--,--
Contrast Stuff,2022_Oct_13_1409,100,1200,1920,49,3,2.5,False,,male,,fr,430,0,0,2,1,2,0.0,--,--,--,--,--
Contrast Stuff,2022_Oct_13_1409,100,1200,1920,49,3,2.5,False,,male,,fr,431,0,0,2,1,2,0.0,--,--,--,--,--
Contrast Stuff,2022_Oct_13_1409,100,1200,1920,49,3,2.5,False,,male,,fr,432,0,0,2,1,2,0.0,--,--,--,--,--
Contrast Stuff,2022_Oct_13_1409,100,1200,1920,49,3,2.5,False,,male,,fr,433,0,0,2,0,2,0.0,--,--,--,--,--
Contrast Stuff,2022_Oct_13_1409,100,1200,1920,49,3,2.5,False,,male,,fr,434,0,0,1,0,2,0.0,--,--,--,--,--
Contrast Stuff,2022_Oct_13_1409,100,1200,1920,49,3,2.5,False,,male,,fr,435,0,0,2,1,2,0.0,--,--,--,--,--
Contrast Stuff,2022_Oct_13_1409,100,1200,1920,49,3,2.5,False,,male,,fr,436,0,0,1,0,2,0.0,--,--,--,--,--
Contrast Stuff,2022_Oct_13_1409,100,1200,1920,49,3,2.5,False,,male,,fr,437,0,0,1,1,2,0.0,--,--,--,--,--
Contrast Stuff,2022_Oct_13_1409,100,1200,1920,49,3,2.5,False,,male,,fr,438,0,0,2,0,2,0.0,--,--,--,--,--
Contrast Stuff,2022_Oct_13_1409,100,1200,1920,49,3,2.5,False,,male,,fr,439,0,0,2,0,2,0.0,--,--,--,--,--
Contrast Stuff,2022_Oct_13_1409,100,1200,1920,49,3,2.5,False,,male,,fr,440,0,0,1,1,2,0.0,--,--,--,--,--
Contrast Stuff,2022_Oct_13_1409,100,1200,1920,49,3,2.5,False,,male,,fr,441,0,0,1,1,2,0.0,--,--,--,--,--
Contrast Stuff,2022_Oct_13_1409,100,1200,1920,49,3,2.5,False,,male,,fr,442,0,0,2,1,2,0.0,--,--,--,--,--
Contrast Stuff,2022_Oct_13_1409,100,1200,1920,49,3,2.5,False,,male,,fr,443,0,0,1,1,2,0.0,--,--,--,--,--
Contrast Stuff,2022_Oct_13_1409,100,1200,1920,49,3,2.5,False,,male,,fr,444,0,0,1,1,2,0.0,--,--,--,--,--
Contrast Stuff,2022_Oct_13_1409,100,1200,1920,49,3,2.5,False,,male,,fr,445,0,0,2,1,2,0.0,--,--,--,--,--
Contrast Stuff,2022_Oct_13_1409,100,1200,1920,49,3,2.5,False,,male,,fr,446,0,0,2,1,2,0.0,--,--,--,--,--
Contrast Stuff,2022_Oct_13_1409,100,1200,1920,49,3,2.5,False,,male,,fr,447,0,0,1,0,2,0.0,--,--,--,--,--
Contrast Stuff,2022_Oct_13_1409,100,1200,1920,49,3,2.5,False,,male,,fr,448,0,0,1,1,2,0.0,--,--,--,--,--
Contrast Stuff,2022_Oct_13_1409,100,1200,1920,49,3,2.5,False,,male,,fr,449,0,0,2,0,2,0.0,--,--,--,--,--
Contrast Stuff,2022_Oct_13_1409,100,1200,1920,49,3,2.5,False,,male,,fr,450,0,0,1,1,2,0.0,--,--,--,--,--
Contrast Stuff,2022_Oct_13_1409,100,1200,1920,49,3,2.5,False,,male,,fr,451,0,0,2,0,2,0.0,--,--,--,--,--
Contrast Stuff,2022_Oct_13_1409,100,1200,1920,49,3,2.5,False,,male,,fr,452,0,0,1,1,2,0.0,--,--,--,--,--
Contrast Stuff,2022_Oct_13_1409,100,1200,1920,49,3,2.5,False,,male,,fr,453,0,0,1,1,2,0.0,--,--,--,--,--
Contrast Stuff,2022_Oct_13_1409,100,1200,1920,49,3,2.5,False,,male,,fr,454,0,0,1,1,2,0.0,--,--,--,--,--
Contrast Stuff,2022_Oct_13_1409,100,1200,1920,49,3,2.5,False,,male,,fr,455,0,0,2,1,2,0.0,--,--,--,--,--
Contrast Stuff,2022_Oct_13_1409,100,1200,1920,49,3,2.5,False,,male,,fr,456,0,0,2,1,2,0.0,--,--,--,--,--
Contrast Stuff,2022_Oct_13_1409,100,1200,1920,49,3,2.5,False,,male,,fr,457,0,0,2,0,2,0.0,--,--,--,--,--
Contrast Stuff,2022_Oct_13_1409,100,1200,1920,49,3,2.5,False,,male,,fr,458,0,0,1,0,2,0.0,--,--,--,--,--
Contrast Stuff,2022_Oct_13_1409,100,1200,1920,49,3,2.5,False,,male,,fr,459,0,0,2,0,2,0.0,--,--,--,--,--
Contrast Stuff,2022_Oct_13_1409,100,1200,1920,49,3,2.5,False,,male,,fr,460,0,0,2,1,2,0.0,--,--,--,--,--
Contrast Stuff,2022_Oct_13_1409,100,1200,1920,49,3,2.5,False,,male,,fr,461,0,0,1,1,2,0.0,--,--,--,--,--
Contrast Stuff,2022_Oct_13_1409,100,1200,1920,49,3,2.5,False,,male,,fr,462,0,0,2,0,2,0.0,--,--,--,--,--
Contrast Stuff,2022_Oct_13_1409,100,1200,1920,49,3,2.5,False,,male,,fr,463,0,0,2,0,2,0.0,--,--,--,--,--
Contrast Stuff,2022_Oct_13_1409,100,1200,1920,49,3,2.5,False,,male,,fr,464,0,0,1,0,2,0.0,--,--,--,--,--
Contrast Stuff,2022_Oct_13_1409,100,1200,1920,49,3,2.5,False,,male,,fr,465,0,0,2,0,2,0.0,--,--,--,--,--
Contrast Stuff,2022_Oct_13_1409,100,1200,1920,49,3,2.5,False,,male,,fr,466,0,0,2,1,2,0.0,--,--,--,--,--
Contrast Stuff,2022_Oct_13_1409,100,1200,1920,49,3,2.5,False,,male,,fr,467,0,0,2,0,2,0.0,--,--,--,--,--
Contrast Stuff,2022_Oct_13_1409,100,1200,1920,49,3,2.5,False,,male,,fr,468,0,0,2,1,2,0.0,--,--,--,--,--
Contrast Stuff,2022_Oct_13_1409,100,1200,1920,49,3,2.5,False,,male,,fr,469,0,0,2,0,2,0.0,--,--,--,--,--
Contrast Stuff,2022_Oct_13_1409,100,1200,1920,49,3,2.5,False,,male,,fr,470,0,0,1,0,2,0.0,--,--,--,--,--
Contrast Stuff,2022_Oct_13_1409,100,1200,1920,49,3,2.5,False,,male,,fr,471,0,0,1,0,2,0.0,--,--,--,--,--
Contrast Stuff,2022_Oct_13_1409,100,1200,1920,49,3,2.5,False,,male,,fr,472,0,0,2,0,2,0.0,--,--,--,--,--
Contrast Stuff,2022_Oct_13_1409,100,1200,1920,49,3,2.5,False,,male,,fr,473,0,0,1,1,2,0.0,--,--,--,--,--
Contrast Stuff,2022_Oct_13_1409,100,1200,1920,49,3,2.5,False,,male,,fr,474,0,0,1,0,2,0.0,--,--,--,--,--
Contrast Stuff,2022_Oct_13_1409,100,1200,1920,49,3,2.5,False,,male,,fr,475,0,0,2,1,2,0.0,--,--,--,--,--
Contrast Stuff,2022_Oct_13_1409,100,1200,1920,49,3,2.5,False,,male,,fr,476,0,0,2,0,2,0.0,--,--,--,--,--
Contrast Stuff,2022_Oct_13_1409,100,1200,1920,49,3,2.5,False,,male,,fr,477,0,0,1,0,2,0.0,--,--,--,--,--
Contrast Stuff,2022_Oct_13_1409,100,1200,1920,49,3,2.5,False,,male,,fr,478,0,0,1,0,2,0.0,--,--,--,--,--
Contrast Stuff,2022_Oct_13_1409,100,1200,1920,49,3,2.5,False,,male,,fr,479,0,0,1,1,2,0.0,--,--,--,--,--
Contrast Stuff,2022_Oct_13_1409,100,1200,1920,49,3,2.5,False,,male,,fr,480,0,0,2,1,2,0.0,--,--,--,--,--
Contrast Stuff,2022_Oct_13_1409,100,1200,1920,49,3,2.5,False,,male,,fr,481,90,0,1,0,1,0.0,--,--,--,--,--
Contrast Stuff,2022_Oct_13_1409,100,1200,1920,49,3,2.5,False,,male,,fr,482,90,0,2,0,1,0.0,--,--,--,--,--
Contrast Stuff,2022_Oct_13_1409,100,1200,1920,49,3,2.5,False,,male,,fr,483,90,0,1,0,1,0.0,--,--,--,--,--
Contrast Stuff,2022_Oct_13_1409,100,1200,1920,49,3,2.5,False,,male,,fr,484,90,0,1,0,1,0.0,--,--,--,--,--
Contrast Stuff,2022_Oct_13_1409,100,1200,1920,49,3,2.5,False,,male,,fr,485,90,0,2,0,1,0.0,--,--,--,--,--
Contrast Stuff,2022_Oct_13_1409,100,1200,1920,49,3,2.5,False,,male,,fr,486,90,0,1,1,1,0.0,--,--,--,--,--
Contrast Stuff,2022_Oct_13_1409,100,1200,1920,49,3,2.5,False,,male,,fr,487,90,0,1,0,1,0.0,--,--,--,--,--
Contrast Stuff,2022_Oct_13_1409,100,1200,1920,49,3,2.5,False,,male,,fr,488,90,0,2,0,1,0.0,--,--,--,--,--
Contrast Stuff,2022_Oct_13_1409,100,1200,1920,49,3,2.5,False,,male,,fr,489,90,0,2,1,1,0.0,--,--,--,--,--
Contrast Stuff,2022_Oct_13_1409,100,1200,1920,49,3,2.5,False,,male,,fr,490,90,0,1,1,1,0.0,--,--,--,--,--
Contrast Stuff,2022_Oct_13_1409,100,1200,1920,49,3,2.5,False,,male,,fr,491,90,0,2,1,1,0.0,--,--,--,--,--
Contrast Stuff,2022_Oct_13_1409,100,1200,1920,49,3,2.5,False,,male,,fr,492,90,0,2,0,1,0.0,--,--,--,--,--
Contrast Stuff,2022_Oct_13_1409,100,1200,1920,49,3,2.5,False,,male,,fr,493,90,0,2,1,1,0.0,--,--,--,--,--
Contrast Stuff,2022_Oct_13_1409,100,1200,1920,49,3,2.5,False,,male,,fr,494,90,0,1,0,1,0.0,--,--,--,--,--
Contrast Stuff,2022_Oct_13_1409,100,1200,1920,49,3,2.5,False,,male,,fr,495,90,0,1,1,1,0.0,--,--,--,--,--
Contrast Stuff,2022_Oct_13_1409,100,1200,1920,49,3,2.5,False,,male,,fr,496,90,0,1,1,1,0.0,--,--,--,--,--
Contrast Stuff,2022_Oct_13_1409,100,1200,1920,49,3,2.5,False,,male,,fr,497,90,0,1,1,1,0.0,--,--,--,--,--
Contrast Stuff,2022_Oct_13_1409,100,1200,1920,49,3,2.5,False,,male,,fr,498,90,0,2,1,1,0.0,--,--,--,--,--
Contrast Stuff,2022_Oct_13_1409,100,1200,1920,49,3,2.5,False,,male,,fr,499,90,0,1,0,1,0.0,--,--,--,--,--
Contrast Stuff,2022_Oct_13_1409,100,1200,1920,49,3,2.5,False,,male,,fr,500,90,0,1,0,1,0.0,--,--,--,--,--
Contrast Stuff,2022_Oct_13_1409,100,1200,1920,49,3,2.5,False,,male,,fr,501,90,0,2,1,1,0.0,--,--,--,--,--
Contrast Stuff,2022_Oct_13_1409,100,1200,1920,49,3,2.5,False,,male,,fr,502,90,0,2,1,1,0.0,--,--,--,--,--
Contrast Stuff,2022_Oct_13_1409,100,1200,1920,49,3,2.5,False,,male,,fr,503,90,0,2,0,1,0.0,--,--,--,--,--
Contrast Stuff,2022_Oct_13_1409,100,1200,1920,49,3,2.5,False,,male,,fr,504,90,0,1,1,1,0.0,--,--,--,--,--
Contrast Stuff,2022_Oct_13_1409,100,1200,1920,49,3,2.5,False,,male,,fr,505,90,0,2,0,1,0.0,--,--,--,--,--
Contrast Stuff,2022_Oct_13_1409,100,1200,1920,49,3,2.5,False,,male,,fr,506,90,0,1,1,1,0.0,--,--,--,--,--
Contrast Stuff,2022_Oct_13_1409,100,1200,1920,49,3,2.5,False,,male,,fr,507,90,0,2,0,1,0.0,--,--,--,--,--
Contrast Stuff,2022_Oct_13_1409,100,1200,1920,49,3,2.5,False,,male,,fr,508,90,0,1,0,1,0.0,--,--,--,--,--
Contrast Stuff,2022_Oct_13_1409,100,1200,1920,49,3,2.5,False,,male,,fr,509,90,0,2,0,1,0.0,--,--,--,--,--
Contrast Stuff,2022_Oct_13_1409,100,1200,1920,49,3,2.5,False,,male,,fr,510,90,0,1,0,1,0.0,--,--,--,--,--
Contrast Stuff,2022_Oct_13_1409,100,1200,1920,49,3,2.5,False,,male,,fr,511,90,0,1,1,1,0.0,--,--,--,--,--
Contrast Stuff,2022_Oct_13_1409,100,1200,1920,49,3,2.5,False,,male,,fr,512,90,0,1,1,1,0.0,--,--,--,--,--
Contrast Stuff,2022_Oct_13_1409,100,1200,1920,49,3,2.5,False,,male,,fr,513,90,0,1,0,1,0.0,--,--,--,--,--
Contrast Stuff,2022_Oct_13_1409,100,1200,1920,49,3,2.5,False,,male,,fr,514,90,0,1,1,1,0.0,--,--,--,--,--
Contrast Stuff,2022_Oct_13_1409,100,1200,1920,49,3,2.5,False,,male,,fr,515,90,0,2,0,1,0.0,--,--,--,--,--
Contrast Stuff,2022_Oct_13_1409,100,1200,1920,49,3,2.5,False,,male,,fr,516,90,0,1,0,1,0.0,--,--,--,--,--
Contrast Stuff,2022_Oct_13_1409,100,1200,1920,49,3,2.5,False,,male,,fr,517,90,0,2,1,1,0.0,--,--,--,--,--
Contrast Stuff,2022_Oct_13_1409,100,1200,1920,49,3,2.5,False,,male,,fr,518,90,0,2,1,1,0.0,--,--,--,--,--
Contrast Stuff,2022_Oct_13_1409,100,1200,1920,49,3,2.5,False,,male,,fr,519,90,0,2,0,1,0.0,--,--,--,--,--
Contrast Stuff,2022_Oct_13_1409,100,1200,1920,49,3,2.5,False,,male,,fr,520,90,0,1,1,1,0.0,--,--,--,--,--
Contrast Stuff,2022_Oct_13_1409,100,1200,1920,49,3,2.5,False,,male,,fr,521,90,0,1,0,1,0.0,--,--,--,--,--
Contrast Stuff,2022_Oct_13_1409,100,1200,1920,49,3,2.5,False,,male,,fr,522,90,0,2,1,1,0.0,--,--,--,--,--
Contrast Stuff,2022_Oct_13_1409,100,1200,1920,49,3,2.5,False,,male,,fr,523,90,0,1,1,1,0.0,--,--,--,--,--
Contrast Stuff,2022_Oct_13_1409,100,1200,1920,49,3,2.5,False,,male,,fr,524,90,0,2,0,1,0.0,--,--,--,--,--
Contrast Stuff,2022_Oct_13_1409,100,1200,1920,49,3,2.5,False,,male,,fr,525,90,0,2,1,1,0.0,--,--,--,--,--
Contrast Stuff,2022_Oct_13_1409,100,1200,1920,49,3,2.5,False,,male,,fr,526,90,0,2,1,1,0.0,--,--,--,--,--
Contrast Stuff,2022_Oct_13_1409,100,1200,1920,49,3,2.5,False,,male,,fr,527,90,0,2,0,1,0.0,--,--,--,--,--
Contrast Stuff,2022_Oct_13_1409,100,1200,1920,49,3,2.5,False,,male,,fr,528,90,0,2,0,1,0.0,--,--,--,--,--
Contrast Stuff,2022_Oct_13_1409,100,1200,1920,49,3,2.5,False,,male,,fr,529,90,0,1,1,1,0.0,--,--,--,--,--
Contrast Stuff,2022_Oct_13_1409,100,1200,1920,49,3,2.5,False,,male,,fr,530,90,0,1,0,1,0.0,--,--,--,--,--
Contrast Stuff,2022_Oct_13_1409,100,1200,1920,49,3,2.5,False,,male,,fr,531,90,0,2,0,1,0.0,--,--,--,--,--
Contrast Stuff,2022_Oct_13_1409,100,1200,1920,49,3,2.5,False,,male,,fr,532,90,0,2,1,1,0.0,--,--,--,--,--
Contrast Stuff,2022_Oct_13_1409,100,1200,1920,49,3,2.5,False,,male,,fr,533,90,0,2,1,1,0.0,--,--,--,--,--
Contrast Stuff,2022_Oct_13_1409,100,1200,1920,49,3,2.5,False,,male,,fr,534,90,0,2,0,1,0.0,--,--,--,--,--
Contrast Stuff,2022_Oct_13_1409,100,1200,1920,49,3,2.5,False,,male,,fr,535,90,0,2,0,1,0.0,--,--,--,--,--
Contrast Stuff,2022_Oct_13_1409,100,1200,1920,49,3,2.5,False,,male,,fr,536,90,0,1,0,1,0.0,--,--,--,--,--
Contrast Stuff,2022_Oct_13_1409,100,1200,1920,49,3,2.5,False,,male,,fr,537,90,0,1,1,1,0.0,--,--,--,--,--
Contrast Stuff,2022_Oct_13_1409,100,1200,1920,49,3,2.5,False,,male,,fr,538,90,0,1,1,1,0.0,--,--,--,--,--
Contrast Stuff,2022_Oct_13_1409,100,1200,1920,49,3,2.5,False,,male,,fr,539,90,0,1,1,1,0.0,--,--,--,--,--
Contrast Stuff,2022_Oct_13_1409,100,1200,1920,49,3,2.5,False,,male,,fr,540,90,0,1,0,1,0.0,--,--,--,--,--
Contrast Stuff,2022_Oct_13_1409,100,1200,1920,49,3,2.5,False,,male,,fr,541,90,0,1,0,1,0.0,--,--,--,--,--
Contrast Stuff,2022_Oct_13_1409,100,1200,1920,49,3,2.5,False,,male,,fr,542,90,0,1,0,1,0.0,--,--,--,--,--
Contrast Stuff,2022_Oct_13_1409,100,1200,1920,49,3,2.5,False,,male,,fr,543,90,0,1,1,1,0.0,--,--,--,--,--
Contrast Stuff,2022_Oct_13_1409,100,1200,1920,49,3,2.5,False,,male,,fr,544,90,0,1,0,1,0.0,--,--,--,--,--
Contrast Stuff,2022_Oct_13_1409,100,1200,1920,49,3,2.5,False,,male,,fr,545,90,0,2,1,1,0.0,--,--,--,--,--
Contrast Stuff,2022_Oct_13_1409,100,1200,1920,49,3,2.5,False,,male,,fr,546,90,0,2,1,1,0.0,--,--,--,--,--
Contrast Stuff,2022_Oct_13_1409,100,1200,1920,49,3,2.5,False,,male,,fr,547,90,0,2,1,1,0.0,--,--,--,--,--
Contrast Stuff,2022_Oct_13_1409,100,1200,1920,49,3,2.5,False,,male,,fr,548,90,0,2,0,1,0.0,--,--,--,--,--
Contrast Stuff,2022_Oct_13_1409,100,1200,1920,49,3,2.5,False,,male,,fr,549,90,0,2,0,1,0.0,--,--,--,--,--
Contrast Stuff,2022_Oct_13_1409,100,1200,1920,49,3,2.5,False,,male,,fr,550,90,0,1,1,1,0.0,--,--,--,--,--
Contrast Stuff,2022_Oct_13_1409,100,1200,1920,49,3,2.5,False,,male,,fr,551,90,0,1,0,1,0.0,--,--,--,--,--
Contrast Stuff,2022_Oct_13_1409,100,1200,1920,49,3,2.5,False,,male,,fr,552,90,0,2,1,1,0.0,--,--,--,--,--
Contrast Stuff,2022_Oct_13_1409,100,1200,1920,49,3,2.5,False,,male,,fr,553,90,0,2,0,1,0.0,--,--,--,--,--
Contrast Stuff,2022_Oct_13_1409,100,1200,1920,49,3,2.5,False,,male,,fr,554,90,0,1,1,1,0.0,--,--,--,--,--
Contrast Stuff,2022_Oct_13_1409,100,1200,1920,49,3,2.5,False,,male,,fr,555,90,0,2,1,1,0.0,--,--,--,--,--
Contrast Stuff,2022_Oct_13_1409,100,1200,1920,49,3,2.5,False,,male,,fr,556,90,0,2,1,1,0.0,--,--,--,--,--
Contrast Stuff,2022_Oct_13_1409,100,1200,1920,49,3,2.5,False,,male,,fr,557,90,0,2,0,1,0.0,--,--,--,--,--
Contrast Stuff,2022_Oct_13_1409,100,1200,1920,49,3,2.5,False,,male,,fr,558,90,0,1,0,1,0.0,--,--,--,--,--
Contrast Stuff,2022_Oct_13_1409,100,1200,1920,49,3,2.5,False,,male,,fr,559,90,0,1,1,1,0.0,--,--,--,--,--
Contrast Stuff,2022_Oct_13_1409,100,1200,1920,49,3,2.5,False,,male,,fr,560,90,0,2,1,1,0.0,--,--,--,--,--
Contrast Stuff,2022_Oct_13_1409,100,1200,1920,49,3,2.5,False,,male,,fr,561,0,0,1,1,2,0.0,--,--,--,--,--
Contrast Stuff,2022_Oct_13_1409,100,1200,1920,49,3,2.5,False,,male,,fr,562,0,0,1,0,2,0.0,--,--,--,--,--
Contrast Stuff,2022_Oct_13_1409,100,1200,1920,49,3,2.5,False,,male,,fr,563,0,0,1,0,2,0.0,--,--,--,--,--
Contrast Stuff,2022_Oct_13_1409,100,1200,1920,49,3,2.5,False,,male,,fr,564,0,0,2,0,2,0.0,--,--,--,--,--
Contrast Stuff,2022_Oct_13_1409,100,1200,1920,49,3,2.5,False,,male,,fr,565,0,0,1,1,2,0.0,--,--,--,--,--
Contrast Stuff,2022_Oct_13_1409,100,1200,1920,49,3,2.5,False,,male,,fr,566,0,0,1,0,2,0.0,--,--,--,--,--
Contrast Stuff,2022_Oct_13_1409,100,1200,1920,49,3,2.5,False,,male,,fr,567,0,0,2,1,2,0.0,--,--,--,--,--
Contrast Stuff,2022_Oct_13_1409,100,1200,1920,49,3,2.5,False,,male,,fr,568,0,0,2,0,2,0.0,--,--,--,--,--
Contrast Stuff,2022_Oct_13_1409,100,1200,1920,49,3,2.5,False,,male,,fr,569,0,0,2,0,2,0.0,--,--,--,--,--
Contrast Stuff,2022_Oct_13_1409,100,1200,1920,49,3,2.5,False,,male,,fr,570,0,0,1,0,2,0.0,--,--,--,--,--
Contrast Stuff,2022_Oct_13_1409,100,1200,1920,49,3,2.5,False,,male,,fr,571,0,0,2,1,2,0.0,--,--,--,--,--
Contrast Stuff,2022_Oct_13_1409,100,1200,1920,49,3,2.5,False,,male,,fr,572,0,0,2,1,2,0.0,--,--,--,--,--
Contrast Stuff,2022_Oct_13_1409,100,1200,1920,49,3,2.5,False,,male,,fr,573,0,0,1,1,2,0.0,--,--,--,--,--
Contrast Stuff,2022_Oct_13_1409,100,1200,1920,49,3,2.5,False,,male,,fr,574,0,0,1,1,2,0.0,--,--,--,--,--
Contrast Stuff,2022_Oct_13_1409,100,1200,1920,49,3,2.5,False,,male,,fr,575,0,0,1,0,2,0.0,--,--,--,--,--
Contrast Stuff,2022_Oct_13_1409,100,1200,1920,49,3,2.5,False,,male,,fr,576,0,0,2,0,2,0.0,--,--,--,--,--
Contrast Stuff,2022_Oct_13_1409,100,1200,1920,49,3,2.5,False,,male,,fr,577,0,0,1,0,2,0.0,--,--,--,--,--
Contrast Stuff,2022_Oct_13_1409,100,1200,1920,49,3,2.5,False,,male,,fr,578,0,0,1,1,2,0.0,--,--,--,--,--
Contrast Stuff,2022_Oct_13_1409,100,1200,1920,49,3,2.5,False,,male,,fr,579,0,0,2,1,2,0.0,--,--,--,--,--
Contrast Stuff,2022_Oct_13_1409,100,1200,1920,49,3,2.5,False,,male,,fr,580,0,0,2,0,2,0.0,--,--,--,--,--
Contrast Stuff,2022_Oct_13_1409,100,1200,1920,49,3,2.5,False,,male,,fr,581,0,0,1,1,2,0.0,--,--,--,--,--
Contrast Stuff,2022_Oct_13_1409,100,1200,1920,49,3,2.5,False,,male,,fr,582,0,0,1,1,2,0.0,--,--,--,--,--
Contrast Stuff,2022_Oct_13_1409,100,1200,1920,49,3,2.5,False,,male,,fr,583,0,0,1,0,2,0.0,--,--,--,--,--
Contrast Stuff,2022_Oct_13_1409,100,1200,1920,49,3,2.5,False,,male,,fr,584,0,0,2,0,2,0.0,--,--,--,--,--
Contrast Stuff,2022_Oct_13_1409,100,1200,1920,49,3,2.5,False,,male,,fr,585,0,0,1,0,2,0.0,--,--,--,--,--
Contrast Stuff,2022_Oct_13_1409,100,1200,1920,49,3,2.5,False,,male,,fr,586,0,0,1,0,2,0.0,--,--,--,--,--
Contrast Stuff,2022_Oct_13_1409,100,1200,1920,49,3,2.5,False,,male,,fr,587,0,0,2,1,2,0.0,--,--,--,--,--
Contrast Stuff,2022_Oct_13_1409,100,1200,1920,49,3,2.5,False,,male,,fr,588,0,0,2,1,2,0.0,--,--,--,--,--
Contrast Stuff,2022_Oct_13_1409,100,1200,1920,49,3,2.5,False,,male,,fr,589,0,0,1,0,2,0.0,--,--,--,--,--
Contrast Stuff,2022_Oct_13_1409,100,1200,1920,49,3,2.5,False,,male,,fr,590,0,0,2,1,2,0.0,--,--,--,--,--
Contrast Stuff,2022_Oct_13_1409,100,1200,1920,49,3,2.5,False,,male,,fr,591,0,0,2,1,2,0.0,--,--,--,--,--
Contrast Stuff,2022_Oct_13_1409,100,1200,1920,49,3,2.5,False,,male,,fr,592,0,0,2,1,2,0.0,--,--,--,--,--
Contrast Stuff,2022_Oct_13_1409,100,1200,1920,49,3,2.5,False,,male,,fr,593,0,0,2,0,2,0.0,--,--,--,--,--
Contrast Stuff,2022_Oct_13_1409,100,1200,1920,49,3,2.5,False,,male,,fr,594,0,0,1,0,2,0.0,--,--,--,--,--
Contrast Stuff,2022_Oct_13_1409,100,1200,1920,49,3,2.5,False,,male,,fr,595,0,0,2,1,2,0.0,--,--,--,--,--
Contrast Stuff,2022_Oct_13_1409,100,1200,1920,49,3,2.5,False,,male,,fr,596,0,0,1,0,2,0.0,--,--,--,--,--
Contrast Stuff,2022_Oct_13_1409,100,1200,1920,49,3,2.5,False,,male,,fr,597,0,0,1,1,2,0.0,--,--,--,--,--
Contrast Stuff,2022_Oct_13_1409,100,1200,1920,49,3,2.5,False,,male,,fr,598,0,0,2,0,2,0.0,--,--,--,--,--
Contrast Stuff,2022_Oct_13_1409,100,1200,1920,49,3,2.5,False,,male,,fr,599,0,0,2,0,2,0.0,--,--,--,--,--
Contrast Stuff,2022_Oct_13_1409,100,1200,1920,49,3,2.5,False,,male,,fr,600,0,0,1,1,2,0.0,--,--,--,--,--
Contrast Stuff,2022_Oct_13_1409,100,1200,1920,49,3,2.5,False,,male,,fr,601,0,0,1,1,2,0.0,--,--,--,--,--
Contrast Stuff,2022_Oct_13_1409,100,1200,1920,49,3,2.5,False,,male,,fr,602,0,0,2,1,2,0.0,--,--,--,--,--
Contrast Stuff,2022_Oct_13_1409,100,1200,1920,49,3,2.5,False,,male,,fr,603,0,0,1,1,2,0.0,--,--,--,--,--
Contrast Stuff,2022_Oct_13_1409,100,1200,1920,49,3,2.5,False,,male,,fr,604,0,0,1,1,2,0.0,--,--,--,--,--
Contrast Stuff,2022_Oct_13_1409,100,1200,1920,49,3,2.5,False,,male,,fr,605,0,0,2,1,2,0.0,--,--,--,--,--
Contrast Stuff,2022_Oct_13_1409,100,1200,1920,49,3,2.5,False,,male,,fr,606,0,0,2,1,2,0.0,--,--,--,--,--
Contrast Stuff,2022_Oct_13_1409,100,1200,1920,49,3,2.5,False,,male,,fr,607,0,0,1,0,2,0.0,--,--,--,--,--
Contrast Stuff,2022_Oct_13_1409,100,1200,1920,49,3,2.5,False,,male,,fr,608,0,0,1,1,2,0.0,--,--,--,--,--
Contrast Stuff,2022_Oct_13_1409,100,1200,1920,49,3,2.5,False,,male,,fr,609,0,0,2,0,2,0.0,--,--,--,--,--
Contrast Stuff,2022_Oct_13_1409,100,1200,1920,49,3,2.5,False,,male,,fr,610,0,0,1,1,2,0.0,--,--,--,--,--
Contrast Stuff,2022_Oct_13_1409,100,1200,1920,49,3,2.5,False,,male,,fr,611,0,0,2,0,2,0.0,--,--,--,--,--
Contrast Stuff,2022_Oct_13_1409,100,1200,1920,49,3,2.5,False,,male,,fr,612,0,0,1,1,2,0.0,--,--,--,--,--
Contrast Stuff,2022_Oct_13_1409,100,1200,1920,49,3,2.5,False,,male,,fr,613,0,0,1,1,2,0.0,--,--,--,--,--
Contrast Stuff,2022_Oct_13_1409,100,1200,1920,49,3,2.5,False,,male,,fr,614,0,0,1,1,2,0.0,--,--,--,--,--
Contrast Stuff,2022_Oct_13_1409,100,1200,1920,49,3,2.5,False,,male,,fr,615,0,0,2,1,2,0.0,--,--,--,--,--
Contrast Stuff,2022_Oct_13_1409,100,1200,1920,49,3,2.5,False,,male,,fr,616,0,0,2,1,2,0.0,--,--,--,--,--
Contrast Stuff,2022_Oct_13_1409,100,1200,1920,49,3,2.5,False,,male,,fr,617,0,0,2,0,2,0.0,--,--,--,--,--
Contrast Stuff,2022_Oct_13_1409,100,1200,1920,49,3,2.5,False,,male,,fr,618,0,0,1,0,2,0.0,--,--,--,--,--
Contrast Stuff,2022_Oct_13_1409,100,1200,1920,49,3,2.5,False,,male,,fr,619,0,0,2,0,2,0.0,--,--,--,--,--
Contrast Stuff,2022_Oct_13_1409,100,1200,1920,49,3,2.5,False,,male,,fr,620,0,0,2,1,2,0.0,--,--,--,--,--
Contrast Stuff,2022_Oct_13_1409,100,1200,1920,49,3,2.5,False,,male,,fr,621,0,0,1,1,2,0.0,--,--,--,--,--
Contrast Stuff,2022_Oct_13_1409,100,1200,1920,49,3,2.5,False,,male,,fr,622,0,0,2,0,2,0.0,--,--,--,--,--
Contrast Stuff,2022_Oct_13_1409,100,1200,1920,49,3,2.5,False,,male,,fr,623,0,0,2,0,2,0.0,--,--,--,--,--
Contrast Stuff,2022_Oct_13_1409,100,1200,1920,49,3,2.5,False,,male,,fr,624,0,0,1,0,2,0.0,--,--,--,--,--
Contrast Stuff,2022_Oct_13_1409,100,1200,1920,49,3,2.5,False,,male,,fr,625,0,0,2,0,2,0.0,--,--,--,--,--
Contrast Stuff,2022_Oct_13_1409,100,1200,1920,49,3,2.5,False,,male,,fr,626,0,0,2,1,2,0.0,--,--,--,--,--
Contrast Stuff,2022_Oct_13_1409,100,1200,1920,49,3,2.5,False,,male,,fr,627,0,0,2,0,2,0.0,--,--,--,--,--
Contrast Stuff,2022_Oct_13_1409,100,1200,1920,49,3,2.5,False,,male,,fr,628,0,0,2,1,2,0.0,--,--,--,--,--
Contrast Stuff,2022_Oct_13_1409,100,1200,1920,49,3,2.5,False,,male,,fr,629,0,0,2,0,2,0.0,--,--,--,--,--
Contrast Stuff,2022_Oct_13_1409,100,1200,1920,49,3,2.5,False,,male,,fr,630,0,0,1,0,2,0.0,--,--,--,--,--
Contrast Stuff,2022_Oct_13_1409,100,1200,1920,49,3,2.5,False,,male,,fr,631,0,0,1,0,2,0.0,--,--,--,--,--
Contrast Stuff,2022_Oct_13_1409,100,1200,1920,49,3,2.5,False,,male,,fr,632,0,0,2,0,2,0.0,--,--,--,--,--
Contrast Stuff,2022_Oct_13_1409,100,1200,1920,49,3,2.5,False,,male,,fr,633,0,0,1,1,2,0.0,--,--,--,--,--
Contrast Stuff,2022_Oct_13_1409,100,1200,1920,49,3,2.5,False,,male,,fr,634,0,0,1,0,2,0.0,--,--,--,--,--
Contrast Stuff,2022_Oct_13_1409,100,1200,1920,49,3,2.5,False,,male,,fr,635,0,0,2,1,2,0.0,--,--,--,--,--
Contrast Stuff,2022_Oct_13_1409,100,1200,1920,49,3,2.5,False,,male,,fr,636,0,0,2,0,2,0.0,--,--,--,--,--
Contrast Stuff,2022_Oct_13_1409,100,1200,1920,49,3,2.5,False,,male,,fr,637,0,0,1,0,2,0.0,--,--,--,--,--
Contrast Stuff,2022_Oct_13_1409,100,1200,1920,49,3,2.5,False,,male,,fr,638,0,0,1,0,2,0.0,--,--,--,--,--
Contrast Stuff,2022_Oct_13_1409,100,1200,1920,49,3,2.5,False,,male,,fr,639,0,0,1,1,2,0.0,--,--,--,--,--
Contrast Stuff,2022_Oct_13_1409,100,1200,1920,49,3,2.5,False,,male,,fr,640,0,0,2,1,2,0.0,--,--,--,--,--
Contrast Stuff,2022_Oct_13_1409,100,1200,1920,49,3,2.5,False,,male,,fr,641,361,0,1,0,3,0.0,--,--,--,--,--
Contrast Stuff,2022_Oct_13_1409,100,1200,1920,49,3,2.5,False,,male,,fr,642,361,0,2,1,3,0.0,--,--,--,--,--
Contrast Stuff,2022_Oct_13_1409,100,1200,1920,49,3,2.5,False,,male,,fr,643,361,0,1,1,3,0.0,--,--,--,--,--
Contrast Stuff,2022_Oct_13_1409,100,1200,1920,49,3,2.5,False,,male,,fr,644,361,0,1,0,3,0.0,--,--,--,--,--
Contrast Stuff,2022_Oct_13_1409,100,1200,1920,49,3,2.5,False,,male,,fr,645,361,0,2,0,3,0.0,--,--,--,--,--
Contrast Stuff,2022_Oct_13_1409,100,1200,1920,49,3,2.5,False,,male,,fr,646,361,0,1,1,3,0.0,--,--,--,--,--
Contrast Stuff,2022_Oct_13_1409,100,1200,1920,49,3,2.5,False,,male,,fr,647,361,0,1,1,3,0.0,--,--,--,--,--
Contrast Stuff,2022_Oct_13_1409,100,1200,1920,49,3,2.5,False,,male,,fr,648,361,0,1,1,3,0.0,--,--,--,--,--
Contrast Stuff,2022_Oct_13_1409,100,1200,1920,49,3,2.5,False,,male,,fr,649,361,0,2,1,3,0.0,--,--,--,--,--
Contrast Stuff,2022_Oct_13_1409,100,1200,1920,49,3,2.5,False,,male,,fr,650,361,0,1,0,3,0.0,--,--,--,--,--
Contrast Stuff,2022_Oct_13_1409,100,1200,1920,49,3,2.5,False,,male,,fr,651,361,0,2,0,3,0.0,--,--,--,--,--
Contrast Stuff,2022_Oct_13_1409,100,1200,1920,49,3,2.5,False,,male,,fr,652,361,0,2,1,3,0.0,--,--,--,--,--
Contrast Stuff,2022_Oct_13_1409,100,1200,1920,49,3,2.5,False,,male,,fr,653,361,0,2,0,3,0.0,--,--,--,--,--
Contrast Stuff,2022_Oct_13_1409,100,1200,1920,49,3,2.5,False,,male,,fr,654,361,0,2,0,3,0.0,--,--,--,--,--
Contrast Stuff,2022_Oct_13_1409,100,1200,1920,49,3,2.5,False,,male,,fr,655,361,0,2,0,3,0.0,--,--,--,--,--
Contrast Stuff,2022_Oct_13_1409,100,1200,1920,49,3,2.5,False,,male,,fr,656,361,0,1,0,3,0.0,--,--,--,--,--
Contrast Stuff,2022_Oct_13_1409,100,1200,1920,49,3,2.5,False,,male,,fr,657,361,0,2,0,3,0.0,--,--,--,--,--
Contrast Stuff,2022_Oct_13_1409,100,1200,1920,49,3,2.5,False,,male,,fr,658,361,0,1,0,3,0.0,--,--,--,--,--
Contrast Stuff,2022_Oct_13_1409,100,1200,1920,49,3,2.5,False,,male,,fr,659,361,0,1,1,3,0.0,--,--,--,--,--
Contrast Stuff,2022_Oct_13_1409,100,1200,1920,49,3,2.5,False,,male,,fr,660,361,0,2,1,3,0.0,--,--,--,--,--
Contrast Stuff,2022_Oct_13_1409,100,1200,1920,49,3,2.5,False,,male,,fr,661,361,0,2,0,3,0.0,--,--,--,--,--
Contrast Stuff,2022_Oct_13_1409,100,1200,1920,49,3,2.5,False,,male,,fr,662,361,0,2,0,3,0.0,--,--,--,--,--
Contrast Stuff,2022_Oct_13_1409,100,1200,1920,49,3,2.5,False,,male,,fr,663,361,0,2,0,3,0.0,--,--,--,--,--
Contrast Stuff,2022_Oct_13_1409,100,1200,1920,49,3,2.5,False,,male,,fr,664,361,0,2,1,3,0.0,--,--,--,--,--
Contrast Stuff,2022_Oct_13_1409,100,1200,1920,49,3,2.5,False,,male,,fr,665,361,0,1,0,3,0.0,--,--,--,--,--
Contrast Stuff,2022_Oct_13_1409,100,1200,1920,49,3,2.5,False,,male,,fr,666,361,0,1,1,3,0.0,--,--,--,--,--
Contrast Stuff,2022_Oct_13_1409,100,1200,1920,49,3,2.5,False,,male,,fr,667,361,0,2,1,3,0.0,--,--,--,--,--
Contrast Stuff,2022_Oct_13_1409,100,1200,1920,49,3,2.5,False,,male,,fr,668,361,0,2,0,3,0.0,--,--,--,--,--
Contrast Stuff,2022_Oct_13_1409,100,1200,1920,49,3,2.5,False,,male,,fr,669,361,0,1,1,3,0.0,--,--,--,--,--
Contrast Stuff,2022_Oct_13_1409,100,1200,1920,49,3,2.5,False,,male,,fr,670,361,0,1,0,3,0.0,--,--,--,--,--
Contrast Stuff,2022_Oct_13_1409,100,1200,1920,49,3,2.5,False,,male,,fr,671,361,0,2,0,3,0.0,--,--,--,--,--
Contrast Stuff,2022_Oct_13_1409,100,1200,1920,49,3,2.5,False,,male,,fr,672,361,0,1,1,3,0.0,--,--,--,--,--
Contrast Stuff,2022_Oct_13_1409,100,1200,1920,49,3,2.5,False,,male,,fr,673,361,0,2,0,3,0.0,--,--,--,--,--
Contrast Stuff,2022_Oct_13_1409,100,1200,1920,49,3,2.5,False,,male,,fr,674,361,0,1,1,3,0.0,--,--,--,--,--
Contrast Stuff,2022_Oct_13_1409,100,1200,1920,49,3,2.5,False,,male,,fr,675,361,0,1,1,3,0.0,--,--,--,--,--
Contrast Stuff,2022_Oct_13_1409,100,1200,1920,49,3,2.5,False,,male,,fr,676,361,0,1,0,3,0.0,--,--,--,--,--
Contrast Stuff,2022_Oct_13_1409,100,1200,1920,49,3,2.5,False,,male,,fr,677,361,0,2,1,3,0.0,--,--,--,--,--
Contrast Stuff,2022_Oct_13_1409,100,1200,1920,49,3,2.5,False,,male,,fr,678,361,0,1,0,3,0.0,--,--,--,--,--
Contrast Stuff,2022_Oct_13_1409,100,1200,1920,49,3,2.5,False,,male,,fr,679,361,0,2,1,3,0.0,--,--,--,--,--
Contrast Stuff,2022_Oct_13_1409,100,1200,1920,49,3,2.5,False,,male,,fr,680,361,0,2,0,3,0.0,--,--,--,--,--
Contrast Stuff,2022_Oct_13_1409,100,1200,1920,49,3,2.5,False,,male,,fr,681,361,0,1,1,3,0.0,--,--,--,--,--
Contrast Stuff,2022_Oct_13_1409,100,1200,1920,49,3,2.5,False,,male,,fr,682,361,0,1,0,3,0.0,--,--,--,--,--
Contrast Stuff,2022_Oct_13_1409,100,1200,1920,49,3,2.5,False,,male,,fr,683,361,0,1,0,3,0.0,--,--,--,--,--
Contrast Stuff,2022_Oct_13_1409,100,1200,1920,49,3,2.5,False,,male,,fr,684,361,0,2,1,3,0.0,--,--,--,--,--
Contrast Stuff,2022_Oct_13_1409,100,1200,1920,49,3,2.5,False,,male,,fr,685,361,0,2,1,3,0.0,--,--,--,--,--
Contrast Stuff,2022_Oct_13_1409,100,1200,1920,49,3,2.5,False,,male,,fr,686,361,0,2,1,3,0.0,--,--,--,--,--
Contrast Stuff,2022_Oct_13_1409,100,1200,1920,49,3,2.5,False,,male,,fr,687,361,0,1,1,3,0.0,--,--,--,--,--
Contrast Stuff,2022_Oct_13_1409,100,1200,1920,49,3,2.5,False,,male,,fr,688,361,0,2,0,3,0.0,--,--,--,--,--
Contrast Stuff,2022_Oct_13_1409,100,1200,1920,49,3,2.5,False,,male,,fr,689,361,0,2,1,3,0.0,--,--,--,--,--
Contrast Stuff,2022_Oct_13_1409,100,1200,1920,49,3,2.5,False,,male,,fr,690,361,0,2,0,3,0.0,--,--,--,--,--
Contrast Stuff,2022_Oct_13_1409,100,1200,1920,49,3,2.5,False,,male,,fr,691,361,0,2,0,3,0.0,--,--,--,--,--
Contrast Stuff,2022_Oct_13_1409,100,1200,1920,49,3,2.5,False,,male,,fr,692,361,0,1,1,3,0.0,--,--,--,--,--
Contrast Stuff,2022_Oct_13_1409,100,1200,1920,49,3,2.5,False,,male,,fr,693,361,0,2,1,3,0.0,--,--,--,--,--
Contrast Stuff,2022_Oct_13_1409,100,1200,1920,49,3,2.5,False,,male,,fr,694,361,0,1,1,3,0.0,--,--,--,--,--
Contrast Stuff,2022_Oct_13_1409,100,1200,1920,49,3,2.5,False,,male,,fr,695,361,0,1,0,3,0.0,--,--,--,--,--
Contrast Stuff,2022_Oct_13_1409,100,1200,1920,49,3,2.5,False,,male,,fr,696,361,0,2,1,3,0.0,--,--,--,--,--
Contrast Stuff,2022_Oct_13_1409,100,1200,1920,49,3,2.5,False,,male,,fr,697,361,0,2,0,3,0.0,--,--,--,--,--
Contrast Stuff,2022_Oct_13_1409,100,1200,1920,49,3,2.5,False,,male,,fr,698,361,0,2,0,3,0.0,--,--,--,--,--
Contrast Stuff,2022_Oct_13_1409,100,1200,1920,49,3,2.5,False,,male,,fr,699,361,0,1,0,3,0.0,--,--,--,--,--
Contrast Stuff,2022_Oct_13_1409,100,1200,1920,49,3,2.5,False,,male,,fr,700,361,0,1,1,3,0.0,--,--,--,--,--
Contrast Stuff,2022_Oct_13_1409,100,1200,1920,49,3,2.5,False,,male,,fr,701,361,0,1,1,3,0.0,--,--,--,--,--
Contrast Stuff,2022_Oct_13_1409,100,1200,1920,49,3,2.5,False,,male,,fr,702,361,0,1,1,3,0.0,--,--,--,--,--
Contrast Stuff,2022_Oct_13_1409,100,1200,1920,49,3,2.5,False,,male,,fr,703,361,0,2,1,3,0.0,--,--,--,--,--
Contrast Stuff,2022_Oct_13_1409,100,1200,1920,49,3,2.5,False,,male,,fr,704,361,0,2,0,3,0.0,--,--,--,--,--
Contrast Stuff,2022_Oct_13_1409,100,1200,1920,49,3,2.5,False,,male,,fr,705,361,0,1,0,3,0.0,--,--,--,--,--
Contrast Stuff,2022_Oct_13_1409,100,1200,1920,49,3,2.5,False,,male,,fr,706,361,0,1,0,3,0.0,--,--,--,--,--
Contrast Stuff,2022_Oct_13_1409,100,1200,1920,49,3,2.5,False,,male,,fr,707,361,0,2,0,3,0.0,--,--,--,--,--
Contrast Stuff,2022_Oct_13_1409,100,1200,1920,49,3,2.5,False,,male,,fr,708,361,0,1,1,3,0.0,--,--,--,--,--
Contrast Stuff,2022_Oct_13_1409,100,1200,1920,49,3,2.5,False,,male,,fr,709,361,0,1,0,3,0.0,--,--,--,--,--
Contrast Stuff,2022_Oct_13_1409,100,1200,1920,49,3,2.5,False,,male,,fr,710,361,0,1,0,3,0.0,--,--,--,--,--
Contrast Stuff,2022_Oct_13_1409,100,1200,1920,49,3,2.5,False,,male,,fr,711,361,0,2,1,3,0.0,--,--,--,--,--
Contrast Stuff,2022_Oct_13_1409,100,1200,1920,49,3,2.5,False,,male,,fr,712,361,0,2,1,3,0.0,--,--,--,--,--
Contrast Stuff,2022_Oct_13_1409,100,1200,1920,49,3,2.5,False,,male,,fr,713,361,0,2,1,3,0.0,--,--,--,--,--
Contrast Stuff,2022_Oct_13_1409,100,1200,1920,49,3,2.5,False,,male,,fr,714,361,0,2,1,3,0.0,--,--,--,--,--
Contrast Stuff,2022_Oct_13_1409,100,1200,1920,49,3,2.5,False,,male,,fr,715,361,0,1,0,3,0.0,--,--,--,--,--
Contrast Stuff,2022_Oct_13_1409,100,1200,1920,49,3,2.5,False,,male,,fr,716,361,0,1,0,3,0.0,--,--,--,--,--
Contrast Stuff,2022_Oct_13_1409,100,1200,1920,49,3,2.5,False,,male,,fr,717,361,0,1,1,3,0.0,--,--,--,--,--
Contrast Stuff,2022_Oct_13_1409,100,1200,1920,49,3,2.5,False,,male,,fr,718,361,0,2,1,3,0.0,--,--,--,--,--
Contrast Stuff,2022_Oct_13_1409,100,1200,1920,49,3,2.5,False,,male,,fr,719,361,0,1,0,3,0.0,--,--,--,--,--
Contrast Stuff,2022_Oct_13_1409,100,1200,1920,49,3,2.5,False,,male,,fr,720,361,0,1,1,3,0.0,--,--,--,--,--
