exp_name,date,refreshrate(hz),screenresolutionvert(pixels),screenresolutionhori(pixels),screenwidth(cm),eccentricity,Stim_size,left-handed,age,gender,participant,language,TrialNumber,bgori,temp,staircase,targetloc,cond,ran,order,resp,rt,acc,contrast
Contrast Stuff,2022_Oct_14_1141,100,1200,1920,49,3,3,False,53,female,Bea,fr,1,0,0,1,1,2,1.0,0.0,1.0,1.5633411,1.0,0.011410550312757525
Contrast Stuff,2022_Oct_14_1141,100,1200,1920,49,3,3,False,53,female,Bea,fr,2,0,0,2,1,2,1.0,1.0,1.0,1.598763,1.0,0.011410550312757525
Contrast Stuff,2022_Oct_14_1141,100,1200,1920,49,3,3,False,53,female,Bea,fr,3,0,0,2,0,2,1.0,2.0,1.0,0.5938495,0.0,0.006956757690467928
Contrast Stuff,2022_Oct_14_1141,100,1200,1920,49,3,3,False,53,female,Bea,fr,4,0,0,1,1,2,1.0,3.0,0.0,0.6557106,0.0,0.006956757690467928
Contrast Stuff,2022_Oct_14_1141,100,1200,1920,49,3,3,False,53,female,Bea,fr,5,0,0,1,0,2,1.0,4.0,0.0,0.6929591,1.0,0.019860687103523404
Contrast Stuff,2022_Oct_14_1141,100,1200,1920,49,3,3,False,53,female,Bea,fr,6,0,0,2,1,2,1.0,5.0,1.0,0.5379654,1.0,0.019860687103523404
Contrast Stuff,2022_Oct_14_1141,100,1200,1920,49,3,3,False,53,female,Bea,fr,7,0,0,1,1,2,1.0,6.0,1.0,0.5538333,1.0,0.014758915330012263
Contrast Stuff,2022_Oct_14_1141,100,1200,1920,49,3,3,False,53,female,Bea,fr,8,0,0,2,0,2,1.0,7.0,1.0,0.7394091,0.0,0.014758915330012263
Contrast Stuff,2022_Oct_14_1141,100,1200,1920,49,3,3,False,53,female,Bea,fr,9,0,0,2,0,2,1.0,8.0,0.0,0.6537417,1.0,0.03131136535299098
Contrast Stuff,2022_Oct_14_1141,100,1200,1920,49,3,3,False,53,female,Bea,fr,10,0,0,2,1,2,1.0,9.0,1.0,0.7577893,1.0,0.0256886996089088
Contrast Stuff,2022_Oct_14_1141,100,1200,1920,49,3,3,False,53,female,Bea,fr,11,0,0,1,0,2,1.0,10.0,0.0,0.5184341,1.0,0.012350670754779419
Contrast Stuff,2022_Oct_14_1141,100,1200,1920,49,3,3,False,53,female,Bea,fr,12,0,0,1,1,2,1.0,11.0,1.0,0.7609047,1.0,0.010132827726011519
Contrast Stuff,2022_Oct_14_1141,100,1200,1920,49,3,3,False,53,female,Bea,fr,13,0,0,2,1,2,1.0,12.0,1.0,0.6622664,1.0,0.02192674732684322
Contrast Stuff,2022_Oct_14_1141,100,1200,1920,49,3,3,False,53,female,Bea,fr,14,0,0,2,1,2,1.0,13.0,1.0,0.4227145,1.0,0.019860687103523404
Contrast Stuff,2022_Oct_14_1141,100,1200,1920,49,3,3,False,53,female,Bea,fr,15,0,0,1,0,2,1.0,14.0,0.0,1.0733614,1.0,0.00882183111215549
Contrast Stuff,2022_Oct_14_1141,100,1200,1920,49,3,3,False,53,female,Bea,fr,16,0,0,1,0,2,1.0,15.0,1.0,0.6225292,0.0,0.006177758765088165
Contrast Stuff,2022_Oct_14_1141,100,1200,1920,49,3,3,False,53,female,Bea,fr,17,0,0,1,1,2,1.0,16.0,1.0,0.6659237,1.0,0.009934240517826544
Contrast Stuff,2022_Oct_14_1141,100,1200,1920,49,3,3,False,53,female,Bea,fr,18,0,0,2,0,2,1.0,17.0,0.0,0.5272753,1.0,0.01729108913486021
Contrast Stuff,2022_Oct_14_1141,100,1200,1920,49,3,3,False,53,female,Bea,fr,19,0,0,1,0,2,1.0,18.0,0.0,1.0931246,1.0,0.009178056277132024
Contrast Stuff,2022_Oct_14_1141,100,1200,1920,49,3,3,False,53,female,Bea,fr,20,0,0,2,0,2,1.0,19.0,0.0,0.690674,1.0,0.013368248148594363
Contrast Stuff,2022_Oct_14_1141,100,1200,1920,49,3,3,False,53,female,Bea,fr,21,0,0,1,0,2,1.0,20.0,1.0,0.8400342,0.0,0.00864893733965554
Contrast Stuff,2022_Oct_14_1141,100,1200,1920,49,3,3,False,53,female,Bea,fr,22,0,0,1,1,2,1.0,21.0,1.0,0.6241417,1.0,0.010752727122835341
Contrast Stuff,2022_Oct_14_1141,100,1200,1920,49,3,3,False,53,female,Bea,fr,23,0,0,2,0,2,1.0,22.0,0.0,0.5841613,1.0,0.012597562826699979
Contrast Stuff,2022_Oct_14_1141,100,1200,1920,49,3,3,False,53,female,Bea,fr,24,0,0,2,0,2,1.0,23.0,0.0,0.5578661,1.0,0.011871307848915111
Contrast Stuff,2022_Oct_14_1141,100,1200,1920,49,3,3,False,53,female,Bea,fr,25,0,0,2,0,2,1.0,24.0,0.0,0.5188922,1.0,0.010752727122835341
Contrast Stuff,2022_Oct_14_1141,100,1200,1920,49,3,3,False,53,female,Bea,fr,26,0,0,2,0,2,1.0,25.0,0.0,0.8845821,1.0,0.009178056277132024
Contrast Stuff,2022_Oct_14_1141,100,1200,1920,49,3,3,False,53,female,Bea,fr,27,0,0,2,0,2,1.0,26.0,0.0,0.6047874,1.0,0.008150322339128512
Contrast Stuff,2022_Oct_14_1141,100,1200,1920,49,3,3,False,53,female,Bea,fr,28,0,0,1,0,2,1.0,27.0,0.0,0.4883408,1.0,0.010132827726011519
Contrast Stuff,2022_Oct_14_1141,100,1200,1920,49,3,3,False,53,female,Bea,fr,29,0,0,1,0,2,1.0,28.0,0.0,0.5642022,1.0,0.009739545301129157
Contrast Stuff,2022_Oct_14_1141,100,1200,1920,49,3,3,False,53,female,Bea,fr,30,0,0,1,0,2,1.0,29.0,0.0,0.4850515,1.0,0.009178056277132024
Contrast Stuff,2022_Oct_14_1141,100,1200,1920,49,3,3,False,53,female,Bea,fr,31,0,0,1,0,2,1.0,30.0,0.0,0.4980401,1.0,0.00882183111215549
Contrast Stuff,2022_Oct_14_1141,100,1200,1920,49,3,3,False,53,female,Bea,fr,32,0,0,1,1,2,1.0,31.0,0.0,0.5658051,0.0,0.008479432008420128
Contrast Stuff,2022_Oct_14_1141,100,1200,1920,49,3,3,False,53,female,Bea,fr,33,0,0,1,1,2,1.0,32.0,0.0,0.5001198,0.0,0.009548665799114418
Contrast Stuff,2022_Oct_14_1141,100,1200,1920,49,3,3,False,53,female,Bea,fr,34,0,0,2,1,2,1.0,33.0,0.0,0.7688244,0.0,0.005821608284521384
Contrast Stuff,2022_Oct_14_1141,100,1200,1920,49,3,3,False,53,female,Bea,fr,35,0,0,1,1,2,1.0,34.0,0.0,1.2904401,0.0,0.010752727122835341
Contrast Stuff,2022_Oct_14_1141,100,1200,1920,49,3,3,False,53,female,Bea,fr,36,0,0,1,0,2,1.0,35.0,0.0,0.5899353,1.0,0.013368248148594363
Contrast Stuff,2022_Oct_14_1141,100,1200,1920,49,3,3,False,53,female,Bea,fr,37,0,0,2,0,2,1.0,36.0,0.0,0.5871494,1.0,0.009361527229880708
Contrast Stuff,2022_Oct_14_1141,100,1200,1920,49,3,3,False,53,female,Bea,fr,38,0,0,1,1,2,1.0,37.0,1.0,0.5901243,1.0,0.012350670754779419
Contrast Stuff,2022_Oct_14_1141,100,1200,1920,49,3,3,False,53,female,Bea,fr,39,0,0,1,0,2,1.0,38.0,0.0,0.6054253,1.0,0.011638649212356182
Contrast Stuff,2022_Oct_14_1141,100,1200,1920,49,3,3,False,53,female,Bea,fr,40,0,0,1,1,2,1.0,39.0,1.0,0.7361922,1.0,0.010967676021633076
Contrast Stuff,2022_Oct_14_1141,100,1200,1920,49,3,3,False,53,female,Bea,fr,41,0,0,1,0,2,1.0,40.0,0.0,0.5815534,1.0,0.010541990878478093
Contrast Stuff,2022_Oct_14_1141,100,1200,1920,49,3,3,False,53,female,Bea,fr,42,0,0,2,1,2,1.0,41.0,0.0,0.573615,0.0,0.00882183111215549
Contrast Stuff,2022_Oct_14_1141,100,1200,1920,49,3,3,False,53,female,Bea,fr,43,0,0,2,0,2,1.0,42.0,0.0,0.6473561,1.0,0.011410550312757525
Contrast Stuff,2022_Oct_14_1141,100,1200,1920,49,3,3,False,53,female,Bea,fr,44,0,0,2,1,2,1.0,43.0,1.0,1.0974057,1.0,0.010541990878478093
Contrast Stuff,2022_Oct_14_1141,100,1200,1920,49,3,3,False,53,female,Bea,fr,45,0,0,1,0,2,1.0,44.0,0.0,0.6061426,1.0,0.010335384727275678
Contrast Stuff,2022_Oct_14_1141,100,1200,1920,49,3,3,False,53,female,Bea,fr,46,0,0,2,1,2,1.0,45.0,0.0,0.6896861,0.0,0.009934240517826544
Contrast Stuff,2022_Oct_14_1141,100,1200,1920,49,3,3,False,53,female,Bea,fr,47,0,0,2,1,2,1.0,46.0,1.0,0.5387994,1.0,0.0121086173723749
Contrast Stuff,2022_Oct_14_1141,100,1200,1920,49,3,3,False,53,female,Bea,fr,48,0,0,2,0,2,1.0,47.0,0.0,0.6172652,1.0,0.011638649212356182
Contrast Stuff,2022_Oct_14_1141,100,1200,1920,49,3,3,False,53,female,Bea,fr,49,0,0,1,0,2,1.0,48.0,0.0,0.5531969,1.0,0.010132827726011519
Contrast Stuff,2022_Oct_14_1141,100,1200,1920,49,3,3,False,53,female,Bea,fr,50,0,0,2,1,2,1.0,49.0,0.0,0.8011912,0.0,0.011186921786571522
Contrast Stuff,2022_Oct_14_1141,100,1200,1920,49,3,3,False,53,female,Bea,fr,51,0,0,2,0,2,1.0,50.0,1.0,1.1089498,0.0,0.012849390314387626
Contrast Stuff,2022_Oct_14_1141,100,1200,1920,49,3,3,False,53,female,Bea,fr,52,0,0,1,0,2,1.0,51.0,0.0,0.4781232,1.0,0.010132827726011519
Contrast Stuff,2022_Oct_14_1141,100,1200,1920,49,3,3,False,53,female,Bea,fr,53,0,0,2,1,2,1.0,52.0,1.0,0.7134831,1.0,0.015974909092232634
Contrast Stuff,2022_Oct_14_1141,100,1200,1920,49,3,3,False,53,female,Bea,fr,54,0,0,2,0,2,1.0,53.0,0.0,0.4482537,1.0,0.014758915330012263
Contrast Stuff,2022_Oct_14_1141,100,1200,1920,49,3,3,False,53,female,Bea,fr,55,0,0,1,0,2,1.0,54.0,0.0,0.4929889,1.0,0.009934240517826544
Contrast Stuff,2022_Oct_14_1141,100,1200,1920,49,3,3,False,53,female,Bea,fr,56,0,0,1,1,2,1.0,55.0,0.0,0.5442065,0.0,0.009739545301129157
Contrast Stuff,2022_Oct_14_1141,100,1200,1920,49,3,3,False,53,female,Bea,fr,57,0,0,1,0,2,1.0,56.0,0.0,0.5245213,1.0,0.010335384727275678
Contrast Stuff,2022_Oct_14_1141,100,1200,1920,49,3,3,False,53,female,Bea,fr,58,0,0,1,1,2,1.0,57.0,0.0,0.6546221,0.0,0.010335384727275678
Contrast Stuff,2022_Oct_14_1141,100,1200,1920,49,3,3,False,53,female,Bea,fr,59,0,0,2,0,2,1.0,58.0,0.0,0.6511426,1.0,0.013908057440071123
Contrast Stuff,2022_Oct_14_1141,100,1200,1920,49,3,3,False,53,female,Bea,fr,60,0,0,1,1,2,1.0,59.0,0.0,1.3812352,0.0,0.010967676021633076
Contrast Stuff,2022_Oct_14_1141,100,1200,1920,49,3,3,False,53,female,Bea,fr,61,0,0,2,0,2,1.0,60.0,0.0,0.5237525,1.0,0.013368248148594363
Contrast Stuff,2022_Oct_14_1141,100,1200,1920,49,3,3,False,53,female,Bea,fr,62,0,0,2,1,2,1.0,61.0,0.0,0.965826,0.0,0.013106251877668104
Contrast Stuff,2022_Oct_14_1141,100,1200,1920,49,3,3,False,53,female,Bea,fr,63,0,0,2,0,2,1.0,62.0,0.0,0.471965,1.0,0.01535487970310756
Contrast Stuff,2022_Oct_14_1141,100,1200,1920,49,3,3,False,53,female,Bea,fr,64,0,0,2,1,2,1.0,63.0,1.0,0.8150628,1.0,0.014758915330012263
Contrast Stuff,2022_Oct_14_1141,100,1200,1920,49,3,3,False,53,female,Bea,fr,65,0,0,1,1,2,1.0,64.0,0.0,0.7924971,0.0,0.0121086173723749
Contrast Stuff,2022_Oct_14_1141,100,1200,1920,49,3,3,False,53,female,Bea,fr,66,0,0,1,1,2,1.0,65.0,1.0,0.8811231,1.0,0.014469664207771075
Contrast Stuff,2022_Oct_14_1141,100,1200,1920,49,3,3,False,53,female,Bea,fr,67,0,0,2,0,2,1.0,66.0,0.0,0.5233127,1.0,0.014186081944646352
Contrast Stuff,2022_Oct_14_1141,100,1200,1920,49,3,3,False,53,female,Bea,fr,68,0,0,2,1,2,1.0,67.0,1.0,0.4834052,1.0,0.013635481770871715
Contrast Stuff,2022_Oct_14_1141,100,1200,1920,49,3,3,False,53,female,Bea,fr,69,0,0,1,1,2,1.0,68.0,1.0,0.539601,1.0,0.013635481770871715
Contrast Stuff,2022_Oct_14_1141,100,1200,1920,49,3,3,False,53,female,Bea,fr,70,0,0,1,1,2,1.0,69.0,1.0,0.5032145,1.0,0.012849390314387626
Contrast Stuff,2022_Oct_14_1141,100,1200,1920,49,3,3,False,53,female,Bea,fr,71,0,0,2,1,2,1.0,70.0,1.0,0.6048835,1.0,0.013106251877668104
Contrast Stuff,2022_Oct_14_1141,100,1200,1920,49,3,3,False,53,female,Bea,fr,72,0,0,1,1,2,1.0,71.0,1.0,0.504061,1.0,0.012350670754779419
Contrast Stuff,2022_Oct_14_1141,100,1200,1920,49,3,3,False,53,female,Bea,fr,73,0,0,1,0,2,1.0,72.0,0.0,0.5012605,1.0,0.0121086173723749
Contrast Stuff,2022_Oct_14_1141,100,1200,1920,49,3,3,False,53,female,Bea,fr,74,0,0,2,0,2,1.0,73.0,0.0,0.5508781,1.0,0.012597562826699979
Contrast Stuff,2022_Oct_14_1141,100,1200,1920,49,3,3,False,53,female,Bea,fr,75,0,0,2,1,2,1.0,74.0,1.0,0.5476441,1.0,0.012350670754779419
Contrast Stuff,2022_Oct_14_1141,100,1200,1920,49,3,3,False,53,female,Bea,fr,76,0,0,2,1,2,1.0,75.0,1.0,0.5209671,1.0,0.0121086173723749
Contrast Stuff,2022_Oct_14_1141,100,1200,1920,49,3,3,False,53,female,Bea,fr,77,0,0,1,1,2,1.0,76.0,1.0,0.3775549,1.0,0.011871307848915111
Contrast Stuff,2022_Oct_14_1141,100,1200,1920,49,3,3,False,53,female,Bea,fr,78,0,0,2,1,2,1.0,77.0,1.0,0.4543681,1.0,0.011871307848915111
Contrast Stuff,2022_Oct_14_1141,100,1200,1920,49,3,3,False,53,female,Bea,fr,79,0,0,2,1,2,1.0,78.0,1.0,0.4471074,1.0,0.011871307848915111
Contrast Stuff,2022_Oct_14_1141,100,1200,1920,49,3,3,False,53,female,Bea,fr,80,0,0,1,0,2,1.0,79.0,1.0,0.5407034,0.0,0.011638649212356182
Contrast Stuff,2022_Oct_14_1141,100,1200,1920,49,3,3,False,53,female,Bea,fr,81,90,0,2,1,1,1.0,80.0,1.0,1.0251311,1.0,0.06016856135202387
Contrast Stuff,2022_Oct_14_1141,100,1200,1920,49,3,3,False,53,female,Bea,fr,82,90,0,2,1,1,1.0,81.0,0.0,0.6338879,0.0,0.02950625151774548
Contrast Stuff,2022_Oct_14_1141,100,1200,1920,49,3,3,False,53,female,Bea,fr,83,90,0,1,1,1,1.0,82.0,1.0,0.6462061,1.0,0.06016856135202387
Contrast Stuff,2022_Oct_14_1141,100,1200,1920,49,3,3,False,53,female,Bea,fr,84,90,0,1,1,1,1.0,83.0,1.0,0.4535324,1.0,0.02950625151774548
Contrast Stuff,2022_Oct_14_1141,100,1200,1920,49,3,3,False,53,female,Bea,fr,85,90,0,1,0,1,1.0,84.0,0.0,1.4914976,1.0,0.01566182643816842
Contrast Stuff,2022_Oct_14_1141,100,1200,1920,49,3,3,False,53,female,Bea,fr,86,90,0,2,1,1,1.0,85.0,0.0,0.8711095,0.0,0.11335515124769421
Contrast Stuff,2022_Oct_14_1141,100,1200,1920,49,3,3,False,53,female,Bea,fr,87,90,0,2,1,1,1.0,86.0,1.0,0.4663348,1.0,0.2357723306969045
Contrast Stuff,2022_Oct_14_1141,100,1200,1920,49,3,3,False,53,female,Bea,fr,88,90,0,2,1,1,1.0,87.0,0.0,0.6692805,0.0,0.20526784216295682
Contrast Stuff,2022_Oct_14_1141,100,1200,1920,49,3,3,False,53,female,Bea,fr,89,90,0,2,1,1,1.0,88.0,1.0,0.715483,1.0,0.2989817634696808
Contrast Stuff,2022_Oct_14_1141,100,1200,1920,49,3,3,False,53,female,Bea,fr,90,90,0,1,0,1,1.0,89.0,0.0,0.7824884,1.0,0.00899818106145444
Contrast Stuff,2022_Oct_14_1141,100,1200,1920,49,3,3,False,53,female,Bea,fr,91,90,0,2,0,1,1.0,90.0,1.0,0.9016289,0.0,0.27622357703508327
Contrast Stuff,2022_Oct_14_1141,100,1200,1920,49,3,3,False,53,female,Bea,fr,92,90,0,2,1,1,1.0,91.0,1.0,0.7413196,1.0,0.3572799097214362
Contrast Stuff,2022_Oct_14_1141,100,1200,1920,49,3,3,False,53,female,Bea,fr,93,90,0,2,0,1,1.0,92.0,0.0,0.544857,1.0,0.3434129109865918
Contrast Stuff,2022_Oct_14_1141,100,1200,1920,49,3,3,False,53,female,Bea,fr,94,90,0,2,0,1,1.0,93.0,1.0,0.8370365,0.0,0.32361500725945164
Contrast Stuff,2022_Oct_14_1141,100,1200,1920,49,3,3,False,53,female,Bea,fr,95,90,0,2,1,1,1.0,94.0,1.0,0.4610265,1.0,0.38671636435739903
Contrast Stuff,2022_Oct_14_1141,100,1200,1920,49,3,3,False,53,female,Bea,fr,96,90,0,2,1,1,1.0,95.0,1.0,0.4984272,1.0,0.3717068572752103
Contrast Stuff,2022_Oct_14_1141,100,1200,1920,49,3,3,False,53,female,Bea,fr,97,90,0,1,1,1,1.0,96.0,0.0,0.5944504,0.0,0.005821608284521384
Contrast Stuff,2022_Oct_14_1141,100,1200,1920,49,3,3,False,53,female,Bea,fr,98,90,0,2,0,1,1.0,97.0,0.0,0.4852527,1.0,0.3644219977033851
Contrast Stuff,2022_Oct_14_1141,100,1200,1920,49,3,3,False,53,female,Bea,fr,99,90,0,2,0,1,1.0,98.0,0.0,0.6671552,1.0,0.3434129109865918
Contrast Stuff,2022_Oct_14_1141,100,1200,1920,49,3,3,False,53,female,Bea,fr,100,90,0,2,0,1,1.0,99.0,1.0,0.9082476,0.0,0.32361500725945164
Contrast Stuff,2022_Oct_14_1141,100,1200,1920,49,3,3,False,53,female,Bea,fr,101,90,0,2,0,1,1.0,100.0,0.0,0.4668419,1.0,0.3717068572752103
Contrast Stuff,2022_Oct_14_1141,100,1200,1920,49,3,3,False,53,female,Bea,fr,102,90,0,2,0,1,1.0,101.0,0.0,0.5546025,1.0,0.3644219977033851
Contrast Stuff,2022_Oct_14_1141,100,1200,1920,49,3,3,False,53,female,Bea,fr,103,90,0,1,0,1,1.0,102.0,0.0,0.6566511,1.0,0.01729108913486021
Contrast Stuff,2022_Oct_14_1141,100,1200,1920,49,3,3,False,53,female,Bea,fr,104,90,0,2,1,1,1.0,103.0,1.0,0.4757341,1.0,0.3572799097214362
Contrast Stuff,2022_Oct_14_1141,100,1200,1920,49,3,3,False,53,female,Bea,fr,105,90,0,2,0,1,1.0,104.0,0.0,0.4350362,1.0,0.3502777952346755
Contrast Stuff,2022_Oct_14_1141,100,1200,1920,49,3,3,False,53,female,Bea,fr,106,90,0,1,1,1,1.0,105.0,0.0,0.5171222,0.0,0.011871307848915111
Contrast Stuff,2022_Oct_14_1141,100,1200,1920,49,3,3,False,53,female,Bea,fr,107,90,0,1,0,1,1.0,106.0,0.0,0.5176578,1.0,0.03193728503137525
Contrast Stuff,2022_Oct_14_1141,100,1200,1920,49,3,3,False,53,female,Bea,fr,108,90,0,1,0,1,1.0,107.0,0.0,0.7768059,1.0,0.021497018167919782
Contrast Stuff,2022_Oct_14_1141,100,1200,1920,49,3,3,False,53,female,Bea,fr,109,90,0,1,0,1,1.0,108.0,1.0,0.801816,0.0,0.0183489118882868
Contrast Stuff,2022_Oct_14_1141,100,1200,1920,49,3,3,False,53,female,Bea,fr,110,90,0,1,1,1,1.0,109.0,0.0,0.4947049,0.0,0.03816470335962361
Contrast Stuff,2022_Oct_14_1141,100,1200,1920,49,3,3,False,53,female,Bea,fr,111,90,0,1,1,1,1.0,110.0,1.0,0.6929389,1.0,0.11793242743228484
Contrast Stuff,2022_Oct_14_1141,100,1200,1920,49,3,3,False,53,female,Bea,fr,112,90,0,2,1,1,1.0,111.0,1.0,0.4025024,1.0,0.3366825674841127
Contrast Stuff,2022_Oct_14_1141,100,1200,1920,49,3,3,False,53,female,Bea,fr,113,90,0,2,0,1,1.0,112.0,0.0,0.5454944,1.0,0.3172726709880634
Contrast Stuff,2022_Oct_14_1141,100,1200,1920,49,3,3,False,53,female,Bea,fr,114,90,0,1,0,1,1.0,113.0,1.0,0.4973606,0.0,0.08592062375574905
Contrast Stuff,2022_Oct_14_1141,100,1200,1920,49,3,3,False,53,female,Bea,fr,115,90,0,1,1,1,1.0,114.0,0.0,0.6404846,0.0,0.18228250393864812
Contrast Stuff,2022_Oct_14_1141,100,1200,1920,49,3,3,False,53,female,Bea,fr,116,90,0,1,1,1,1.0,115.0,0.0,0.8217658,0.0,0.2931221993567684
Contrast Stuff,2022_Oct_14_1141,100,1200,1920,49,3,3,False,53,female,Bea,fr,117,90,0,1,1,1,1.0,116.0,1.0,0.5162554,1.0,0.3944468922240608
Contrast Stuff,2022_Oct_14_1141,100,1200,1920,49,3,3,False,53,female,Bea,fr,118,90,0,1,1,1,1.0,117.0,1.0,0.844648,1.0,0.3717068572752103
Contrast Stuff,2022_Oct_14_1141,100,1200,1920,49,3,3,False,53,female,Bea,fr,119,90,0,1,0,1,1.0,118.0,0.0,0.7779429,1.0,0.3572799097214362
Contrast Stuff,2022_Oct_14_1141,100,1200,1920,49,3,3,False,53,female,Bea,fr,120,90,0,2,0,1,1.0,119.0,0.0,1.8437526,1.0,0.30495846129566156
Contrast Stuff,2022_Oct_14_1141,100,1200,1920,49,3,3,False,53,female,Bea,fr,121,90,0,1,1,1,1.0,120.0,1.0,0.7424195,1.0,0.3366825674841127
Contrast Stuff,2022_Oct_14_1141,100,1200,1920,49,3,3,False,53,female,Bea,fr,122,90,0,2,1,1,1.0,121.0,1.0,1.0527304,1.0,0.2989817634696808
Contrast Stuff,2022_Oct_14_1141,100,1200,1920,49,3,3,False,53,female,Bea,fr,123,90,0,1,1,1,1.0,122.0,1.0,0.6807683,1.0,0.3172726709880634
Contrast Stuff,2022_Oct_14_1141,100,1200,1920,49,3,3,False,53,female,Bea,fr,124,90,0,2,1,1,1.0,123.0,0.0,1.0898542,0.0,0.2931221993567684
Contrast Stuff,2022_Oct_14_1141,100,1200,1920,49,3,3,False,53,female,Bea,fr,125,90,0,2,1,1,1.0,124.0,1.0,0.4556867,1.0,0.33008412794392594
Contrast Stuff,2022_Oct_14_1141,100,1200,1920,49,3,3,False,53,female,Bea,fr,126,90,0,2,1,1,1.0,125.0,1.0,0.6698766,1.0,0.32361500725945164
Contrast Stuff,2022_Oct_14_1141,100,1200,1920,49,3,3,False,53,female,Bea,fr,127,90,0,1,1,1,1.0,126.0,0.0,0.9771728,0.0,0.28174533472756413
Contrast Stuff,2022_Oct_14_1141,100,1200,1920,49,3,3,False,53,female,Bea,fr,128,90,0,1,1,1,1.0,127.0,1.0,0.9681925,1.0,0.3502777952346755
Contrast Stuff,2022_Oct_14_1141,100,1200,1920,49,3,3,False,53,female,Bea,fr,129,90,0,2,0,1,1.0,128.0,1.0,0.6269395,0.0,0.3172726709880634
Contrast Stuff,2022_Oct_14_1141,100,1200,1920,49,3,3,False,53,female,Bea,fr,130,90,0,2,1,1,1.0,129.0,1.0,0.4430482,1.0,0.3434129109865918
Contrast Stuff,2022_Oct_14_1141,100,1200,1920,49,3,3,False,53,female,Bea,fr,131,90,0,1,0,1,1.0,130.0,0.0,0.8325893,1.0,0.3366825674841127
Contrast Stuff,2022_Oct_14_1141,100,1200,1920,49,3,3,False,53,female,Bea,fr,132,90,0,1,0,1,1.0,131.0,0.0,0.9178862,1.0,0.33008412794392594
Contrast Stuff,2022_Oct_14_1141,100,1200,1920,49,3,3,False,53,female,Bea,fr,133,90,0,2,1,1,1.0,132.0,1.0,0.6280971,1.0,0.3434129109865918
Contrast Stuff,2022_Oct_14_1141,100,1200,1920,49,3,3,False,53,female,Bea,fr,134,90,0,1,0,1,1.0,133.0,0.0,0.5721892,1.0,0.32361500725945164
Contrast Stuff,2022_Oct_14_1141,100,1200,1920,49,3,3,False,53,female,Bea,fr,135,90,0,2,0,1,1.0,134.0,0.0,0.8510263,1.0,0.3366825674841127
Contrast Stuff,2022_Oct_14_1141,100,1200,1920,49,3,3,False,53,female,Bea,fr,136,90,0,2,0,1,1.0,135.0,0.0,0.6044793,1.0,0.33008412794392594
Contrast Stuff,2022_Oct_14_1141,100,1200,1920,49,3,3,False,53,female,Bea,fr,137,90,0,2,1,1,1.0,136.0,1.0,0.492585,1.0,0.32361500725945164
Contrast Stuff,2022_Oct_14_1141,100,1200,1920,49,3,3,False,53,female,Bea,fr,138,90,0,2,1,1,1.0,137.0,1.0,0.5759717,1.0,0.3110546343581532
Contrast Stuff,2022_Oct_14_1141,100,1200,1920,49,3,3,False,53,female,Bea,fr,139,90,0,1,0,1,1.0,138.0,0.0,0.772614,1.0,0.3110546343581532
Contrast Stuff,2022_Oct_14_1141,100,1200,1920,49,3,3,False,53,female,Bea,fr,140,90,0,1,0,1,1.0,139.0,0.0,0.9068646,1.0,0.2989817634696808
Contrast Stuff,2022_Oct_14_1141,100,1200,1920,49,3,3,False,53,female,Bea,fr,141,90,0,1,0,1,1.0,140.0,0.0,0.6917007,1.0,0.27622357703508327
Contrast Stuff,2022_Oct_14_1141,100,1200,1920,49,3,3,False,53,female,Bea,fr,142,90,0,1,1,1,1.0,141.0,1.0,1.1809912,1.0,0.2655025936014887
Contrast Stuff,2022_Oct_14_1141,100,1200,1920,49,3,3,False,53,female,Bea,fr,143,90,0,1,1,1,1.0,142.0,1.0,0.8184787,1.0,0.25519772050509687
Contrast Stuff,2022_Oct_14_1141,100,1200,1920,49,3,3,False,53,female,Bea,fr,144,90,0,2,1,1,1.0,143.0,1.0,0.7309846,1.0,0.30495846129566156
Contrast Stuff,2022_Oct_14_1141,100,1200,1920,49,3,3,False,53,female,Bea,fr,145,90,0,2,0,1,1.0,144.0,0.0,0.7056176,1.0,0.2989817634696808
Contrast Stuff,2022_Oct_14_1141,100,1200,1920,49,3,3,False,53,female,Bea,fr,146,90,0,1,0,1,1.0,145.0,0.0,0.8763392,1.0,0.25019625356806596
Contrast Stuff,2022_Oct_14_1141,100,1200,1920,49,3,3,False,53,female,Bea,fr,147,90,0,2,0,1,1.0,146.0,0.0,0.8809469,1.0,0.2931221993567684
Contrast Stuff,2022_Oct_14_1141,100,1200,1920,49,3,3,False,53,female,Bea,fr,148,90,0,1,1,1,1.0,147.0,1.0,1.4269136,1.0,0.2404854608890255
Contrast Stuff,2022_Oct_14_1141,100,1200,1920,49,3,3,False,53,female,Bea,fr,149,90,0,2,0,1,1.0,148.0,0.0,0.7710277,1.0,0.2931221993567684
Contrast Stuff,2022_Oct_14_1141,100,1200,1920,49,3,3,False,53,female,Bea,fr,150,90,0,2,0,1,1.0,149.0,0.0,0.5820818,1.0,0.28737747332359304
Contrast Stuff,2022_Oct_14_1141,100,1200,1920,49,3,3,False,53,female,Bea,fr,151,90,0,1,0,1,1.0,150.0,0.0,0.6148984,1.0,0.2357723306969045
Contrast Stuff,2022_Oct_14_1141,100,1200,1920,49,3,3,False,53,female,Bea,fr,152,90,0,2,0,1,1.0,151.0,0.0,1.1848648,1.0,0.28174533472756413
Contrast Stuff,2022_Oct_14_1141,100,1200,1920,49,3,3,False,53,female,Bea,fr,153,90,0,1,1,1,1.0,152.0,1.0,0.6956994,1.0,0.2266213694406883
Contrast Stuff,2022_Oct_14_1141,100,1200,1920,49,3,3,False,53,female,Bea,fr,154,90,0,1,0,1,1.0,153.0,0.0,0.6494832,1.0,0.21355654889620218
Contrast Stuff,2022_Oct_14_1141,100,1200,1920,49,3,3,False,53,female,Bea,fr,155,90,0,1,0,1,1.0,154.0,0.0,0.7215962,1.0,0.16840734593483328
Contrast Stuff,2022_Oct_14_1141,100,1200,1920,49,3,3,False,53,female,Bea,fr,156,90,0,1,0,1,1.0,155.0,1.0,0.7462957,0.0,0.15869858917265317
Contrast Stuff,2022_Oct_14_1141,100,1200,1920,49,3,3,False,53,female,Bea,fr,157,90,0,1,1,1,1.0,156.0,0.0,0.7593215,0.0,0.2266213694406883
Contrast Stuff,2022_Oct_14_1141,100,1200,1920,49,3,3,False,53,female,Bea,fr,158,90,0,1,1,1,1.0,157.0,1.0,0.7472339,1.0,0.25019625356806596
Contrast Stuff,2022_Oct_14_1141,100,1200,1920,49,3,3,False,53,female,Bea,fr,159,90,0,2,0,1,1.0,158.0,0.0,1.027207,1.0,0.27622357703508327
Contrast Stuff,2022_Oct_14_1141,100,1200,1920,49,3,3,False,53,female,Bea,fr,160,90,0,1,0,1,1.0,159.0,0.0,1.1228765,1.0,0.25019625356806596
Contrast Stuff,2022_Oct_14_1141,100,1200,1920,49,3,3,False,53,female,Bea,fr,161,361,0,1,1,3,0.0,--,--,--,--,--
Contrast Stuff,2022_Oct_14_1141,100,1200,1920,49,3,3,False,53,female,Bea,fr,162,361,0,1,1,3,0.0,--,--,--,--,--
Contrast Stuff,2022_Oct_14_1141,100,1200,1920,49,3,3,False,53,female,Bea,fr,163,361,0,1,0,3,0.0,--,--,--,--,--
Contrast Stuff,2022_Oct_14_1141,100,1200,1920,49,3,3,False,53,female,Bea,fr,164,361,0,2,0,3,0.0,--,--,--,--,--
Contrast Stuff,2022_Oct_14_1141,100,1200,1920,49,3,3,False,53,female,Bea,fr,165,361,0,2,1,3,0.0,--,--,--,--,--
Contrast Stuff,2022_Oct_14_1141,100,1200,1920,49,3,3,False,53,female,Bea,fr,166,361,0,2,0,3,0.0,--,--,--,--,--
Contrast Stuff,2022_Oct_14_1141,100,1200,1920,49,3,3,False,53,female,Bea,fr,167,361,0,2,0,3,0.0,--,--,--,--,--
Contrast Stuff,2022_Oct_14_1141,100,1200,1920,49,3,3,False,53,female,Bea,fr,168,361,0,2,0,3,0.0,--,--,--,--,--
Contrast Stuff,2022_Oct_14_1141,100,1200,1920,49,3,3,False,53,female,Bea,fr,169,361,0,1,0,3,0.0,--,--,--,--,--
Contrast Stuff,2022_Oct_14_1141,100,1200,1920,49,3,3,False,53,female,Bea,fr,170,361,0,1,1,3,0.0,--,--,--,--,--
Contrast Stuff,2022_Oct_14_1141,100,1200,1920,49,3,3,False,53,female,Bea,fr,171,361,0,2,1,3,0.0,--,--,--,--,--
Contrast Stuff,2022_Oct_14_1141,100,1200,1920,49,3,3,False,53,female,Bea,fr,172,361,0,2,1,3,0.0,--,--,--,--,--
Contrast Stuff,2022_Oct_14_1141,100,1200,1920,49,3,3,False,53,female,Bea,fr,173,361,0,1,1,3,0.0,--,--,--,--,--
Contrast Stuff,2022_Oct_14_1141,100,1200,1920,49,3,3,False,53,female,Bea,fr,174,361,0,1,0,3,0.0,--,--,--,--,--
Contrast Stuff,2022_Oct_14_1141,100,1200,1920,49,3,3,False,53,female,Bea,fr,175,361,0,2,0,3,0.0,--,--,--,--,--
Contrast Stuff,2022_Oct_14_1141,100,1200,1920,49,3,3,False,53,female,Bea,fr,176,361,0,2,0,3,0.0,--,--,--,--,--
Contrast Stuff,2022_Oct_14_1141,100,1200,1920,49,3,3,False,53,female,Bea,fr,177,361,0,1,0,3,0.0,--,--,--,--,--
Contrast Stuff,2022_Oct_14_1141,100,1200,1920,49,3,3,False,53,female,Bea,fr,178,361,0,2,1,3,0.0,--,--,--,--,--
Contrast Stuff,2022_Oct_14_1141,100,1200,1920,49,3,3,False,53,female,Bea,fr,179,361,0,1,1,3,0.0,--,--,--,--,--
Contrast Stuff,2022_Oct_14_1141,100,1200,1920,49,3,3,False,53,female,Bea,fr,180,361,0,2,0,3,0.0,--,--,--,--,--
Contrast Stuff,2022_Oct_14_1141,100,1200,1920,49,3,3,False,53,female,Bea,fr,181,361,0,1,0,3,0.0,--,--,--,--,--
Contrast Stuff,2022_Oct_14_1141,100,1200,1920,49,3,3,False,53,female,Bea,fr,182,361,0,2,0,3,0.0,--,--,--,--,--
Contrast Stuff,2022_Oct_14_1141,100,1200,1920,49,3,3,False,53,female,Bea,fr,183,361,0,2,1,3,0.0,--,--,--,--,--
Contrast Stuff,2022_Oct_14_1141,100,1200,1920,49,3,3,False,53,female,Bea,fr,184,361,0,2,1,3,0.0,--,--,--,--,--
Contrast Stuff,2022_Oct_14_1141,100,1200,1920,49,3,3,False,53,female,Bea,fr,185,361,0,2,0,3,0.0,--,--,--,--,--
Contrast Stuff,2022_Oct_14_1141,100,1200,1920,49,3,3,False,53,female,Bea,fr,186,361,0,1,1,3,0.0,--,--,--,--,--
Contrast Stuff,2022_Oct_14_1141,100,1200,1920,49,3,3,False,53,female,Bea,fr,187,361,0,2,1,3,0.0,--,--,--,--,--
Contrast Stuff,2022_Oct_14_1141,100,1200,1920,49,3,3,False,53,female,Bea,fr,188,361,0,1,0,3,0.0,--,--,--,--,--
Contrast Stuff,2022_Oct_14_1141,100,1200,1920,49,3,3,False,53,female,Bea,fr,189,361,0,1,0,3,0.0,--,--,--,--,--
Contrast Stuff,2022_Oct_14_1141,100,1200,1920,49,3,3,False,53,female,Bea,fr,190,361,0,1,1,3,0.0,--,--,--,--,--
Contrast Stuff,2022_Oct_14_1141,100,1200,1920,49,3,3,False,53,female,Bea,fr,191,361,0,2,1,3,0.0,--,--,--,--,--
Contrast Stuff,2022_Oct_14_1141,100,1200,1920,49,3,3,False,53,female,Bea,fr,192,361,0,1,0,3,0.0,--,--,--,--,--
Contrast Stuff,2022_Oct_14_1141,100,1200,1920,49,3,3,False,53,female,Bea,fr,193,361,0,1,0,3,0.0,--,--,--,--,--
Contrast Stuff,2022_Oct_14_1141,100,1200,1920,49,3,3,False,53,female,Bea,fr,194,361,0,2,0,3,0.0,--,--,--,--,--
Contrast Stuff,2022_Oct_14_1141,100,1200,1920,49,3,3,False,53,female,Bea,fr,195,361,0,1,1,3,0.0,--,--,--,--,--
Contrast Stuff,2022_Oct_14_1141,100,1200,1920,49,3,3,False,53,female,Bea,fr,196,361,0,1,1,3,0.0,--,--,--,--,--
Contrast Stuff,2022_Oct_14_1141,100,1200,1920,49,3,3,False,53,female,Bea,fr,197,361,0,2,0,3,0.0,--,--,--,--,--
Contrast Stuff,2022_Oct_14_1141,100,1200,1920,49,3,3,False,53,female,Bea,fr,198,361,0,1,0,3,0.0,--,--,--,--,--
Contrast Stuff,2022_Oct_14_1141,100,1200,1920,49,3,3,False,53,female,Bea,fr,199,361,0,2,1,3,0.0,--,--,--,--,--
Contrast Stuff,2022_Oct_14_1141,100,1200,1920,49,3,3,False,53,female,Bea,fr,200,361,0,1,0,3,0.0,--,--,--,--,--
Contrast Stuff,2022_Oct_14_1141,100,1200,1920,49,3,3,False,53,female,Bea,fr,201,361,0,2,1,3,0.0,--,--,--,--,--
Contrast Stuff,2022_Oct_14_1141,100,1200,1920,49,3,3,False,53,female,Bea,fr,202,361,0,2,0,3,0.0,--,--,--,--,--
Contrast Stuff,2022_Oct_14_1141,100,1200,1920,49,3,3,False,53,female,Bea,fr,203,361,0,2,0,3,0.0,--,--,--,--,--
Contrast Stuff,2022_Oct_14_1141,100,1200,1920,49,3,3,False,53,female,Bea,fr,204,361,0,1,1,3,0.0,--,--,--,--,--
Contrast Stuff,2022_Oct_14_1141,100,1200,1920,49,3,3,False,53,female,Bea,fr,205,361,0,1,1,3,0.0,--,--,--,--,--
Contrast Stuff,2022_Oct_14_1141,100,1200,1920,49,3,3,False,53,female,Bea,fr,206,361,0,1,1,3,0.0,--,--,--,--,--
Contrast Stuff,2022_Oct_14_1141,100,1200,1920,49,3,3,False,53,female,Bea,fr,207,361,0,2,1,3,0.0,--,--,--,--,--
Contrast Stuff,2022_Oct_14_1141,100,1200,1920,49,3,3,False,53,female,Bea,fr,208,361,0,2,0,3,0.0,--,--,--,--,--
Contrast Stuff,2022_Oct_14_1141,100,1200,1920,49,3,3,False,53,female,Bea,fr,209,361,0,1,0,3,0.0,--,--,--,--,--
Contrast Stuff,2022_Oct_14_1141,100,1200,1920,49,3,3,False,53,female,Bea,fr,210,361,0,1,0,3,0.0,--,--,--,--,--
Contrast Stuff,2022_Oct_14_1141,100,1200,1920,49,3,3,False,53,female,Bea,fr,211,361,0,2,1,3,0.0,--,--,--,--,--
Contrast Stuff,2022_Oct_14_1141,100,1200,1920,49,3,3,False,53,female,Bea,fr,212,361,0,2,0,3,0.0,--,--,--,--,--
Contrast Stuff,2022_Oct_14_1141,100,1200,1920,49,3,3,False,53,female,Bea,fr,213,361,0,2,1,3,0.0,--,--,--,--,--
Contrast Stuff,2022_Oct_14_1141,100,1200,1920,49,3,3,False,53,female,Bea,fr,214,361,0,2,0,3,0.0,--,--,--,--,--
Contrast Stuff,2022_Oct_14_1141,100,1200,1920,49,3,3,False,53,female,Bea,fr,215,361,0,1,0,3,0.0,--,--,--,--,--
Contrast Stuff,2022_Oct_14_1141,100,1200,1920,49,3,3,False,53,female,Bea,fr,216,361,0,1,0,3,0.0,--,--,--,--,--
Contrast Stuff,2022_Oct_14_1141,100,1200,1920,49,3,3,False,53,female,Bea,fr,217,361,0,2,1,3,0.0,--,--,--,--,--
Contrast Stuff,2022_Oct_14_1141,100,1200,1920,49,3,3,False,53,female,Bea,fr,218,361,0,1,0,3,0.0,--,--,--,--,--
Contrast Stuff,2022_Oct_14_1141,100,1200,1920,49,3,3,False,53,female,Bea,fr,219,361,0,1,1,3,0.0,--,--,--,--,--
Contrast Stuff,2022_Oct_14_1141,100,1200,1920,49,3,3,False,53,female,Bea,fr,220,361,0,2,0,3,0.0,--,--,--,--,--
Contrast Stuff,2022_Oct_14_1141,100,1200,1920,49,3,3,False,53,female,Bea,fr,221,361,0,2,0,3,0.0,--,--,--,--,--
Contrast Stuff,2022_Oct_14_1141,100,1200,1920,49,3,3,False,53,female,Bea,fr,222,361,0,1,0,3,0.0,--,--,--,--,--
Contrast Stuff,2022_Oct_14_1141,100,1200,1920,49,3,3,False,53,female,Bea,fr,223,361,0,2,1,3,0.0,--,--,--,--,--
Contrast Stuff,2022_Oct_14_1141,100,1200,1920,49,3,3,False,53,female,Bea,fr,224,361,0,2,1,3,0.0,--,--,--,--,--
Contrast Stuff,2022_Oct_14_1141,100,1200,1920,49,3,3,False,53,female,Bea,fr,225,361,0,1,1,3,0.0,--,--,--,--,--
Contrast Stuff,2022_Oct_14_1141,100,1200,1920,49,3,3,False,53,female,Bea,fr,226,361,0,1,0,3,0.0,--,--,--,--,--
Contrast Stuff,2022_Oct_14_1141,100,1200,1920,49,3,3,False,53,female,Bea,fr,227,361,0,2,1,3,0.0,--,--,--,--,--
Contrast Stuff,2022_Oct_14_1141,100,1200,1920,49,3,3,False,53,female,Bea,fr,228,361,0,2,0,3,0.0,--,--,--,--,--
Contrast Stuff,2022_Oct_14_1141,100,1200,1920,49,3,3,False,53,female,Bea,fr,229,361,0,1,1,3,0.0,--,--,--,--,--
Contrast Stuff,2022_Oct_14_1141,100,1200,1920,49,3,3,False,53,female,Bea,fr,230,361,0,2,0,3,0.0,--,--,--,--,--
Contrast Stuff,2022_Oct_14_1141,100,1200,1920,49,3,3,False,53,female,Bea,fr,231,361,0,1,1,3,0.0,--,--,--,--,--
Contrast Stuff,2022_Oct_14_1141,100,1200,1920,49,3,3,False,53,female,Bea,fr,232,361,0,2,1,3,0.0,--,--,--,--,--
Contrast Stuff,2022_Oct_14_1141,100,1200,1920,49,3,3,False,53,female,Bea,fr,233,361,0,1,1,3,0.0,--,--,--,--,--
Contrast Stuff,2022_Oct_14_1141,100,1200,1920,49,3,3,False,53,female,Bea,fr,234,361,0,1,1,3,0.0,--,--,--,--,--
Contrast Stuff,2022_Oct_14_1141,100,1200,1920,49,3,3,False,53,female,Bea,fr,235,361,0,1,0,3,0.0,--,--,--,--,--
Contrast Stuff,2022_Oct_14_1141,100,1200,1920,49,3,3,False,53,female,Bea,fr,236,361,0,1,1,3,0.0,--,--,--,--,--
Contrast Stuff,2022_Oct_14_1141,100,1200,1920,49,3,3,False,53,female,Bea,fr,237,361,0,2,1,3,0.0,--,--,--,--,--
Contrast Stuff,2022_Oct_14_1141,100,1200,1920,49,3,3,False,53,female,Bea,fr,238,361,0,1,1,3,0.0,--,--,--,--,--
Contrast Stuff,2022_Oct_14_1141,100,1200,1920,49,3,3,False,53,female,Bea,fr,239,361,0,2,1,3,0.0,--,--,--,--,--
Contrast Stuff,2022_Oct_14_1141,100,1200,1920,49,3,3,False,53,female,Bea,fr,240,361,0,1,0,3,0.0,--,--,--,--,--
Contrast Stuff,2022_Oct_14_1141,100,1200,1920,49,3,3,False,53,female,Bea,fr,241,361,0,1,1,3,0.0,--,--,--,--,--
Contrast Stuff,2022_Oct_14_1141,100,1200,1920,49,3,3,False,53,female,Bea,fr,242,361,0,1,1,3,0.0,--,--,--,--,--
Contrast Stuff,2022_Oct_14_1141,100,1200,1920,49,3,3,False,53,female,Bea,fr,243,361,0,1,0,3,0.0,--,--,--,--,--
Contrast Stuff,2022_Oct_14_1141,100,1200,1920,49,3,3,False,53,female,Bea,fr,244,361,0,2,0,3,0.0,--,--,--,--,--
Contrast Stuff,2022_Oct_14_1141,100,1200,1920,49,3,3,False,53,female,Bea,fr,245,361,0,2,1,3,0.0,--,--,--,--,--
Contrast Stuff,2022_Oct_14_1141,100,1200,1920,49,3,3,False,53,female,Bea,fr,246,361,0,2,0,3,0.0,--,--,--,--,--
Contrast Stuff,2022_Oct_14_1141,100,1200,1920,49,3,3,False,53,female,Bea,fr,247,361,0,2,0,3,0.0,--,--,--,--,--
Contrast Stuff,2022_Oct_14_1141,100,1200,1920,49,3,3,False,53,female,Bea,fr,248,361,0,2,0,3,0.0,--,--,--,--,--
Contrast Stuff,2022_Oct_14_1141,100,1200,1920,49,3,3,False,53,female,Bea,fr,249,361,0,1,0,3,0.0,--,--,--,--,--
Contrast Stuff,2022_Oct_14_1141,100,1200,1920,49,3,3,False,53,female,Bea,fr,250,361,0,1,1,3,0.0,--,--,--,--,--
Contrast Stuff,2022_Oct_14_1141,100,1200,1920,49,3,3,False,53,female,Bea,fr,251,361,0,2,1,3,0.0,--,--,--,--,--
Contrast Stuff,2022_Oct_14_1141,100,1200,1920,49,3,3,False,53,female,Bea,fr,252,361,0,2,1,3,0.0,--,--,--,--,--
Contrast Stuff,2022_Oct_14_1141,100,1200,1920,49,3,3,False,53,female,Bea,fr,253,361,0,1,1,3,0.0,--,--,--,--,--
Contrast Stuff,2022_Oct_14_1141,100,1200,1920,49,3,3,False,53,female,Bea,fr,254,361,0,1,0,3,0.0,--,--,--,--,--
Contrast Stuff,2022_Oct_14_1141,100,1200,1920,49,3,3,False,53,female,Bea,fr,255,361,0,2,0,3,0.0,--,--,--,--,--
Contrast Stuff,2022_Oct_14_1141,100,1200,1920,49,3,3,False,53,female,Bea,fr,256,361,0,2,0,3,0.0,--,--,--,--,--
Contrast Stuff,2022_Oct_14_1141,100,1200,1920,49,3,3,False,53,female,Bea,fr,257,361,0,1,0,3,0.0,--,--,--,--,--
Contrast Stuff,2022_Oct_14_1141,100,1200,1920,49,3,3,False,53,female,Bea,fr,258,361,0,2,1,3,0.0,--,--,--,--,--
Contrast Stuff,2022_Oct_14_1141,100,1200,1920,49,3,3,False,53,female,Bea,fr,259,361,0,1,1,3,0.0,--,--,--,--,--
Contrast Stuff,2022_Oct_14_1141,100,1200,1920,49,3,3,False,53,female,Bea,fr,260,361,0,2,0,3,0.0,--,--,--,--,--
Contrast Stuff,2022_Oct_14_1141,100,1200,1920,49,3,3,False,53,female,Bea,fr,261,361,0,1,0,3,0.0,--,--,--,--,--
Contrast Stuff,2022_Oct_14_1141,100,1200,1920,49,3,3,False,53,female,Bea,fr,262,361,0,2,0,3,0.0,--,--,--,--,--
Contrast Stuff,2022_Oct_14_1141,100,1200,1920,49,3,3,False,53,female,Bea,fr,263,361,0,2,1,3,0.0,--,--,--,--,--
Contrast Stuff,2022_Oct_14_1141,100,1200,1920,49,3,3,False,53,female,Bea,fr,264,361,0,2,1,3,0.0,--,--,--,--,--
Contrast Stuff,2022_Oct_14_1141,100,1200,1920,49,3,3,False,53,female,Bea,fr,265,361,0,2,0,3,0.0,--,--,--,--,--
Contrast Stuff,2022_Oct_14_1141,100,1200,1920,49,3,3,False,53,female,Bea,fr,266,361,0,1,1,3,0.0,--,--,--,--,--
Contrast Stuff,2022_Oct_14_1141,100,1200,1920,49,3,3,False,53,female,Bea,fr,267,361,0,2,1,3,0.0,--,--,--,--,--
Contrast Stuff,2022_Oct_14_1141,100,1200,1920,49,3,3,False,53,female,Bea,fr,268,361,0,1,0,3,0.0,--,--,--,--,--
Contrast Stuff,2022_Oct_14_1141,100,1200,1920,49,3,3,False,53,female,Bea,fr,269,361,0,1,0,3,0.0,--,--,--,--,--
Contrast Stuff,2022_Oct_14_1141,100,1200,1920,49,3,3,False,53,female,Bea,fr,270,361,0,1,1,3,0.0,--,--,--,--,--
Contrast Stuff,2022_Oct_14_1141,100,1200,1920,49,3,3,False,53,female,Bea,fr,271,361,0,2,1,3,0.0,--,--,--,--,--
Contrast Stuff,2022_Oct_14_1141,100,1200,1920,49,3,3,False,53,female,Bea,fr,272,361,0,1,0,3,0.0,--,--,--,--,--
Contrast Stuff,2022_Oct_14_1141,100,1200,1920,49,3,3,False,53,female,Bea,fr,273,361,0,1,0,3,0.0,--,--,--,--,--
Contrast Stuff,2022_Oct_14_1141,100,1200,1920,49,3,3,False,53,female,Bea,fr,274,361,0,2,0,3,0.0,--,--,--,--,--
Contrast Stuff,2022_Oct_14_1141,100,1200,1920,49,3,3,False,53,female,Bea,fr,275,361,0,1,1,3,0.0,--,--,--,--,--
Contrast Stuff,2022_Oct_14_1141,100,1200,1920,49,3,3,False,53,female,Bea,fr,276,361,0,1,1,3,0.0,--,--,--,--,--
Contrast Stuff,2022_Oct_14_1141,100,1200,1920,49,3,3,False,53,female,Bea,fr,277,361,0,2,0,3,0.0,--,--,--,--,--
Contrast Stuff,2022_Oct_14_1141,100,1200,1920,49,3,3,False,53,female,Bea,fr,278,361,0,1,0,3,0.0,--,--,--,--,--
Contrast Stuff,2022_Oct_14_1141,100,1200,1920,49,3,3,False,53,female,Bea,fr,279,361,0,2,1,3,0.0,--,--,--,--,--
Contrast Stuff,2022_Oct_14_1141,100,1200,1920,49,3,3,False,53,female,Bea,fr,280,361,0,1,0,3,0.0,--,--,--,--,--
Contrast Stuff,2022_Oct_14_1141,100,1200,1920,49,3,3,False,53,female,Bea,fr,281,361,0,2,1,3,0.0,--,--,--,--,--
Contrast Stuff,2022_Oct_14_1141,100,1200,1920,49,3,3,False,53,female,Bea,fr,282,361,0,2,0,3,0.0,--,--,--,--,--
Contrast Stuff,2022_Oct_14_1141,100,1200,1920,49,3,3,False,53,female,Bea,fr,283,361,0,2,0,3,0.0,--,--,--,--,--
Contrast Stuff,2022_Oct_14_1141,100,1200,1920,49,3,3,False,53,female,Bea,fr,284,361,0,1,1,3,0.0,--,--,--,--,--
Contrast Stuff,2022_Oct_14_1141,100,1200,1920,49,3,3,False,53,female,Bea,fr,285,361,0,1,1,3,0.0,--,--,--,--,--
Contrast Stuff,2022_Oct_14_1141,100,1200,1920,49,3,3,False,53,female,Bea,fr,286,361,0,1,1,3,0.0,--,--,--,--,--
Contrast Stuff,2022_Oct_14_1141,100,1200,1920,49,3,3,False,53,female,Bea,fr,287,361,0,2,1,3,0.0,--,--,--,--,--
Contrast Stuff,2022_Oct_14_1141,100,1200,1920,49,3,3,False,53,female,Bea,fr,288,361,0,2,0,3,0.0,--,--,--,--,--
Contrast Stuff,2022_Oct_14_1141,100,1200,1920,49,3,3,False,53,female,Bea,fr,289,361,0,1,0,3,0.0,--,--,--,--,--
Contrast Stuff,2022_Oct_14_1141,100,1200,1920,49,3,3,False,53,female,Bea,fr,290,361,0,1,0,3,0.0,--,--,--,--,--
Contrast Stuff,2022_Oct_14_1141,100,1200,1920,49,3,3,False,53,female,Bea,fr,291,361,0,2,1,3,0.0,--,--,--,--,--
Contrast Stuff,2022_Oct_14_1141,100,1200,1920,49,3,3,False,53,female,Bea,fr,292,361,0,2,0,3,0.0,--,--,--,--,--
Contrast Stuff,2022_Oct_14_1141,100,1200,1920,49,3,3,False,53,female,Bea,fr,293,361,0,2,1,3,0.0,--,--,--,--,--
Contrast Stuff,2022_Oct_14_1141,100,1200,1920,49,3,3,False,53,female,Bea,fr,294,361,0,2,0,3,0.0,--,--,--,--,--
Contrast Stuff,2022_Oct_14_1141,100,1200,1920,49,3,3,False,53,female,Bea,fr,295,361,0,1,0,3,0.0,--,--,--,--,--
Contrast Stuff,2022_Oct_14_1141,100,1200,1920,49,3,3,False,53,female,Bea,fr,296,361,0,1,0,3,0.0,--,--,--,--,--
Contrast Stuff,2022_Oct_14_1141,100,1200,1920,49,3,3,False,53,female,Bea,fr,297,361,0,2,1,3,0.0,--,--,--,--,--
Contrast Stuff,2022_Oct_14_1141,100,1200,1920,49,3,3,False,53,female,Bea,fr,298,361,0,1,0,3,0.0,--,--,--,--,--
Contrast Stuff,2022_Oct_14_1141,100,1200,1920,49,3,3,False,53,female,Bea,fr,299,361,0,1,1,3,0.0,--,--,--,--,--
Contrast Stuff,2022_Oct_14_1141,100,1200,1920,49,3,3,False,53,female,Bea,fr,300,361,0,2,0,3,0.0,--,--,--,--,--
Contrast Stuff,2022_Oct_14_1141,100,1200,1920,49,3,3,False,53,female,Bea,fr,301,361,0,2,0,3,0.0,--,--,--,--,--
Contrast Stuff,2022_Oct_14_1141,100,1200,1920,49,3,3,False,53,female,Bea,fr,302,361,0,1,0,3,0.0,--,--,--,--,--
Contrast Stuff,2022_Oct_14_1141,100,1200,1920,49,3,3,False,53,female,Bea,fr,303,361,0,2,1,3,0.0,--,--,--,--,--
Contrast Stuff,2022_Oct_14_1141,100,1200,1920,49,3,3,False,53,female,Bea,fr,304,361,0,2,1,3,0.0,--,--,--,--,--
Contrast Stuff,2022_Oct_14_1141,100,1200,1920,49,3,3,False,53,female,Bea,fr,305,361,0,1,1,3,0.0,--,--,--,--,--
Contrast Stuff,2022_Oct_14_1141,100,1200,1920,49,3,3,False,53,female,Bea,fr,306,361,0,1,0,3,0.0,--,--,--,--,--
Contrast Stuff,2022_Oct_14_1141,100,1200,1920,49,3,3,False,53,female,Bea,fr,307,361,0,2,1,3,0.0,--,--,--,--,--
Contrast Stuff,2022_Oct_14_1141,100,1200,1920,49,3,3,False,53,female,Bea,fr,308,361,0,2,0,3,0.0,--,--,--,--,--
Contrast Stuff,2022_Oct_14_1141,100,1200,1920,49,3,3,False,53,female,Bea,fr,309,361,0,1,1,3,0.0,--,--,--,--,--
Contrast Stuff,2022_Oct_14_1141,100,1200,1920,49,3,3,False,53,female,Bea,fr,310,361,0,2,0,3,0.0,--,--,--,--,--
Contrast Stuff,2022_Oct_14_1141,100,1200,1920,49,3,3,False,53,female,Bea,fr,311,361,0,1,1,3,0.0,--,--,--,--,--
Contrast Stuff,2022_Oct_14_1141,100,1200,1920,49,3,3,False,53,female,Bea,fr,312,361,0,2,1,3,0.0,--,--,--,--,--
Contrast Stuff,2022_Oct_14_1141,100,1200,1920,49,3,3,False,53,female,Bea,fr,313,361,0,1,1,3,0.0,--,--,--,--,--
Contrast Stuff,2022_Oct_14_1141,100,1200,1920,49,3,3,False,53,female,Bea,fr,314,361,0,1,1,3,0.0,--,--,--,--,--
Contrast Stuff,2022_Oct_14_1141,100,1200,1920,49,3,3,False,53,female,Bea,fr,315,361,0,1,0,3,0.0,--,--,--,--,--
Contrast Stuff,2022_Oct_14_1141,100,1200,1920,49,3,3,False,53,female,Bea,fr,316,361,0,1,1,3,0.0,--,--,--,--,--
Contrast Stuff,2022_Oct_14_1141,100,1200,1920,49,3,3,False,53,female,Bea,fr,317,361,0,2,1,3,0.0,--,--,--,--,--
Contrast Stuff,2022_Oct_14_1141,100,1200,1920,49,3,3,False,53,female,Bea,fr,318,361,0,1,1,3,0.0,--,--,--,--,--
Contrast Stuff,2022_Oct_14_1141,100,1200,1920,49,3,3,False,53,female,Bea,fr,319,361,0,2,1,3,0.0,--,--,--,--,--
Contrast Stuff,2022_Oct_14_1141,100,1200,1920,49,3,3,False,53,female,Bea,fr,320,361,0,1,0,3,0.0,--,--,--,--,--
Contrast Stuff,2022_Oct_14_1141,100,1200,1920,49,3,3,False,53,female,Bea,fr,321,90,0,2,1,1,0.0,--,--,--,--,--
Contrast Stuff,2022_Oct_14_1141,100,1200,1920,49,3,3,False,53,female,Bea,fr,322,90,0,2,1,1,0.0,--,--,--,--,--
Contrast Stuff,2022_Oct_14_1141,100,1200,1920,49,3,3,False,53,female,Bea,fr,323,90,0,1,1,1,0.0,--,--,--,--,--
Contrast Stuff,2022_Oct_14_1141,100,1200,1920,49,3,3,False,53,female,Bea,fr,324,90,0,1,1,1,0.0,--,--,--,--,--
Contrast Stuff,2022_Oct_14_1141,100,1200,1920,49,3,3,False,53,female,Bea,fr,325,90,0,1,0,1,0.0,--,--,--,--,--
Contrast Stuff,2022_Oct_14_1141,100,1200,1920,49,3,3,False,53,female,Bea,fr,326,90,0,2,1,1,0.0,--,--,--,--,--
Contrast Stuff,2022_Oct_14_1141,100,1200,1920,49,3,3,False,53,female,Bea,fr,327,90,0,2,1,1,0.0,--,--,--,--,--
Contrast Stuff,2022_Oct_14_1141,100,1200,1920,49,3,3,False,53,female,Bea,fr,328,90,0,2,1,1,0.0,--,--,--,--,--
Contrast Stuff,2022_Oct_14_1141,100,1200,1920,49,3,3,False,53,female,Bea,fr,329,90,0,2,1,1,0.0,--,--,--,--,--
Contrast Stuff,2022_Oct_14_1141,100,1200,1920,49,3,3,False,53,female,Bea,fr,330,90,0,1,0,1,0.0,--,--,--,--,--
Contrast Stuff,2022_Oct_14_1141,100,1200,1920,49,3,3,False,53,female,Bea,fr,331,90,0,2,0,1,0.0,--,--,--,--,--
Contrast Stuff,2022_Oct_14_1141,100,1200,1920,49,3,3,False,53,female,Bea,fr,332,90,0,2,1,1,0.0,--,--,--,--,--
Contrast Stuff,2022_Oct_14_1141,100,1200,1920,49,3,3,False,53,female,Bea,fr,333,90,0,2,0,1,0.0,--,--,--,--,--
Contrast Stuff,2022_Oct_14_1141,100,1200,1920,49,3,3,False,53,female,Bea,fr,334,90,0,2,0,1,0.0,--,--,--,--,--
Contrast Stuff,2022_Oct_14_1141,100,1200,1920,49,3,3,False,53,female,Bea,fr,335,90,0,2,1,1,0.0,--,--,--,--,--
Contrast Stuff,2022_Oct_14_1141,100,1200,1920,49,3,3,False,53,female,Bea,fr,336,90,0,2,1,1,0.0,--,--,--,--,--
Contrast Stuff,2022_Oct_14_1141,100,1200,1920,49,3,3,False,53,female,Bea,fr,337,90,0,1,1,1,0.0,--,--,--,--,--
Contrast Stuff,2022_Oct_14_1141,100,1200,1920,49,3,3,False,53,female,Bea,fr,338,90,0,2,0,1,0.0,--,--,--,--,--
Contrast Stuff,2022_Oct_14_1141,100,1200,1920,49,3,3,False,53,female,Bea,fr,339,90,0,2,0,1,0.0,--,--,--,--,--
Contrast Stuff,2022_Oct_14_1141,100,1200,1920,49,3,3,False,53,female,Bea,fr,340,90,0,2,0,1,0.0,--,--,--,--,--
Contrast Stuff,2022_Oct_14_1141,100,1200,1920,49,3,3,False,53,female,Bea,fr,341,90,0,2,0,1,0.0,--,--,--,--,--
Contrast Stuff,2022_Oct_14_1141,100,1200,1920,49,3,3,False,53,female,Bea,fr,342,90,0,2,0,1,0.0,--,--,--,--,--
Contrast Stuff,2022_Oct_14_1141,100,1200,1920,49,3,3,False,53,female,Bea,fr,343,90,0,1,0,1,0.0,--,--,--,--,--
Contrast Stuff,2022_Oct_14_1141,100,1200,1920,49,3,3,False,53,female,Bea,fr,344,90,0,2,1,1,0.0,--,--,--,--,--
Contrast Stuff,2022_Oct_14_1141,100,1200,1920,49,3,3,False,53,female,Bea,fr,345,90,0,2,0,1,0.0,--,--,--,--,--
Contrast Stuff,2022_Oct_14_1141,100,1200,1920,49,3,3,False,53,female,Bea,fr,346,90,0,1,1,1,0.0,--,--,--,--,--
Contrast Stuff,2022_Oct_14_1141,100,1200,1920,49,3,3,False,53,female,Bea,fr,347,90,0,1,0,1,0.0,--,--,--,--,--
Contrast Stuff,2022_Oct_14_1141,100,1200,1920,49,3,3,False,53,female,Bea,fr,348,90,0,1,0,1,0.0,--,--,--,--,--
Contrast Stuff,2022_Oct_14_1141,100,1200,1920,49,3,3,False,53,female,Bea,fr,349,90,0,1,0,1,0.0,--,--,--,--,--
Contrast Stuff,2022_Oct_14_1141,100,1200,1920,49,3,3,False,53,female,Bea,fr,350,90,0,1,1,1,0.0,--,--,--,--,--
Contrast Stuff,2022_Oct_14_1141,100,1200,1920,49,3,3,False,53,female,Bea,fr,351,90,0,1,1,1,0.0,--,--,--,--,--
Contrast Stuff,2022_Oct_14_1141,100,1200,1920,49,3,3,False,53,female,Bea,fr,352,90,0,2,1,1,0.0,--,--,--,--,--
Contrast Stuff,2022_Oct_14_1141,100,1200,1920,49,3,3,False,53,female,Bea,fr,353,90,0,2,0,1,0.0,--,--,--,--,--
Contrast Stuff,2022_Oct_14_1141,100,1200,1920,49,3,3,False,53,female,Bea,fr,354,90,0,1,0,1,0.0,--,--,--,--,--
Contrast Stuff,2022_Oct_14_1141,100,1200,1920,49,3,3,False,53,female,Bea,fr,355,90,0,1,1,1,0.0,--,--,--,--,--
Contrast Stuff,2022_Oct_14_1141,100,1200,1920,49,3,3,False,53,female,Bea,fr,356,90,0,1,1,1,0.0,--,--,--,--,--
Contrast Stuff,2022_Oct_14_1141,100,1200,1920,49,3,3,False,53,female,Bea,fr,357,90,0,1,1,1,0.0,--,--,--,--,--
Contrast Stuff,2022_Oct_14_1141,100,1200,1920,49,3,3,False,53,female,Bea,fr,358,90,0,1,1,1,0.0,--,--,--,--,--
Contrast Stuff,2022_Oct_14_1141,100,1200,1920,49,3,3,False,53,female,Bea,fr,359,90,0,1,0,1,0.0,--,--,--,--,--
Contrast Stuff,2022_Oct_14_1141,100,1200,1920,49,3,3,False,53,female,Bea,fr,360,90,0,2,0,1,0.0,--,--,--,--,--
Contrast Stuff,2022_Oct_14_1141,100,1200,1920,49,3,3,False,53,female,Bea,fr,361,90,0,1,1,1,0.0,--,--,--,--,--
Contrast Stuff,2022_Oct_14_1141,100,1200,1920,49,3,3,False,53,female,Bea,fr,362,90,0,2,1,1,0.0,--,--,--,--,--
Contrast Stuff,2022_Oct_14_1141,100,1200,1920,49,3,3,False,53,female,Bea,fr,363,90,0,1,1,1,0.0,--,--,--,--,--
Contrast Stuff,2022_Oct_14_1141,100,1200,1920,49,3,3,False,53,female,Bea,fr,364,90,0,2,1,1,0.0,--,--,--,--,--
Contrast Stuff,2022_Oct_14_1141,100,1200,1920,49,3,3,False,53,female,Bea,fr,365,90,0,2,1,1,0.0,--,--,--,--,--
Contrast Stuff,2022_Oct_14_1141,100,1200,1920,49,3,3,False,53,female,Bea,fr,366,90,0,2,1,1,0.0,--,--,--,--,--
Contrast Stuff,2022_Oct_14_1141,100,1200,1920,49,3,3,False,53,female,Bea,fr,367,90,0,1,1,1,0.0,--,--,--,--,--
Contrast Stuff,2022_Oct_14_1141,100,1200,1920,49,3,3,False,53,female,Bea,fr,368,90,0,1,1,1,0.0,--,--,--,--,--
Contrast Stuff,2022_Oct_14_1141,100,1200,1920,49,3,3,False,53,female,Bea,fr,369,90,0,2,0,1,0.0,--,--,--,--,--
Contrast Stuff,2022_Oct_14_1141,100,1200,1920,49,3,3,False,53,female,Bea,fr,370,90,0,2,1,1,0.0,--,--,--,--,--
Contrast Stuff,2022_Oct_14_1141,100,1200,1920,49,3,3,False,53,female,Bea,fr,371,90,0,1,0,1,0.0,--,--,--,--,--
Contrast Stuff,2022_Oct_14_1141,100,1200,1920,49,3,3,False,53,female,Bea,fr,372,90,0,1,0,1,0.0,--,--,--,--,--
Contrast Stuff,2022_Oct_14_1141,100,1200,1920,49,3,3,False,53,female,Bea,fr,373,90,0,2,1,1,0.0,--,--,--,--,--
Contrast Stuff,2022_Oct_14_1141,100,1200,1920,49,3,3,False,53,female,Bea,fr,374,90,0,1,0,1,0.0,--,--,--,--,--
Contrast Stuff,2022_Oct_14_1141,100,1200,1920,49,3,3,False,53,female,Bea,fr,375,90,0,2,0,1,0.0,--,--,--,--,--
Contrast Stuff,2022_Oct_14_1141,100,1200,1920,49,3,3,False,53,female,Bea,fr,376,90,0,2,0,1,0.0,--,--,--,--,--
Contrast Stuff,2022_Oct_14_1141,100,1200,1920,49,3,3,False,53,female,Bea,fr,377,90,0,2,1,1,0.0,--,--,--,--,--
Contrast Stuff,2022_Oct_14_1141,100,1200,1920,49,3,3,False,53,female,Bea,fr,378,90,0,2,1,1,0.0,--,--,--,--,--
Contrast Stuff,2022_Oct_14_1141,100,1200,1920,49,3,3,False,53,female,Bea,fr,379,90,0,1,0,1,0.0,--,--,--,--,--
Contrast Stuff,2022_Oct_14_1141,100,1200,1920,49,3,3,False,53,female,Bea,fr,380,90,0,1,0,1,0.0,--,--,--,--,--
Contrast Stuff,2022_Oct_14_1141,100,1200,1920,49,3,3,False,53,female,Bea,fr,381,90,0,1,0,1,0.0,--,--,--,--,--
Contrast Stuff,2022_Oct_14_1141,100,1200,1920,49,3,3,False,53,female,Bea,fr,382,90,0,1,1,1,0.0,--,--,--,--,--
Contrast Stuff,2022_Oct_14_1141,100,1200,1920,49,3,3,False,53,female,Bea,fr,383,90,0,1,1,1,0.0,--,--,--,--,--
Contrast Stuff,2022_Oct_14_1141,100,1200,1920,49,3,3,False,53,female,Bea,fr,384,90,0,2,1,1,0.0,--,--,--,--,--
Contrast Stuff,2022_Oct_14_1141,100,1200,1920,49,3,3,False,53,female,Bea,fr,385,90,0,2,0,1,0.0,--,--,--,--,--
Contrast Stuff,2022_Oct_14_1141,100,1200,1920,49,3,3,False,53,female,Bea,fr,386,90,0,1,0,1,0.0,--,--,--,--,--
Contrast Stuff,2022_Oct_14_1141,100,1200,1920,49,3,3,False,53,female,Bea,fr,387,90,0,2,0,1,0.0,--,--,--,--,--
Contrast Stuff,2022_Oct_14_1141,100,1200,1920,49,3,3,False,53,female,Bea,fr,388,90,0,1,1,1,0.0,--,--,--,--,--
Contrast Stuff,2022_Oct_14_1141,100,1200,1920,49,3,3,False,53,female,Bea,fr,389,90,0,2,0,1,0.0,--,--,--,--,--
Contrast Stuff,2022_Oct_14_1141,100,1200,1920,49,3,3,False,53,female,Bea,fr,390,90,0,2,0,1,0.0,--,--,--,--,--
Contrast Stuff,2022_Oct_14_1141,100,1200,1920,49,3,3,False,53,female,Bea,fr,391,90,0,1,0,1,0.0,--,--,--,--,--
Contrast Stuff,2022_Oct_14_1141,100,1200,1920,49,3,3,False,53,female,Bea,fr,392,90,0,2,0,1,0.0,--,--,--,--,--
Contrast Stuff,2022_Oct_14_1141,100,1200,1920,49,3,3,False,53,female,Bea,fr,393,90,0,1,1,1,0.0,--,--,--,--,--
Contrast Stuff,2022_Oct_14_1141,100,1200,1920,49,3,3,False,53,female,Bea,fr,394,90,0,1,0,1,0.0,--,--,--,--,--
Contrast Stuff,2022_Oct_14_1141,100,1200,1920,49,3,3,False,53,female,Bea,fr,395,90,0,1,0,1,0.0,--,--,--,--,--
Contrast Stuff,2022_Oct_14_1141,100,1200,1920,49,3,3,False,53,female,Bea,fr,396,90,0,1,0,1,0.0,--,--,--,--,--
Contrast Stuff,2022_Oct_14_1141,100,1200,1920,49,3,3,False,53,female,Bea,fr,397,90,0,1,1,1,0.0,--,--,--,--,--
Contrast Stuff,2022_Oct_14_1141,100,1200,1920,49,3,3,False,53,female,Bea,fr,398,90,0,1,1,1,0.0,--,--,--,--,--
Contrast Stuff,2022_Oct_14_1141,100,1200,1920,49,3,3,False,53,female,Bea,fr,399,90,0,2,0,1,0.0,--,--,--,--,--
Contrast Stuff,2022_Oct_14_1141,100,1200,1920,49,3,3,False,53,female,Bea,fr,400,90,0,1,0,1,0.0,--,--,--,--,--
Contrast Stuff,2022_Oct_14_1141,100,1200,1920,49,3,3,False,53,female,Bea,fr,401,0,0,1,1,2,0.0,--,--,--,--,--
Contrast Stuff,2022_Oct_14_1141,100,1200,1920,49,3,3,False,53,female,Bea,fr,402,0,0,2,1,2,0.0,--,--,--,--,--
Contrast Stuff,2022_Oct_14_1141,100,1200,1920,49,3,3,False,53,female,Bea,fr,403,0,0,2,0,2,0.0,--,--,--,--,--
Contrast Stuff,2022_Oct_14_1141,100,1200,1920,49,3,3,False,53,female,Bea,fr,404,0,0,1,1,2,0.0,--,--,--,--,--
Contrast Stuff,2022_Oct_14_1141,100,1200,1920,49,3,3,False,53,female,Bea,fr,405,0,0,1,0,2,0.0,--,--,--,--,--
Contrast Stuff,2022_Oct_14_1141,100,1200,1920,49,3,3,False,53,female,Bea,fr,406,0,0,2,1,2,0.0,--,--,--,--,--
Contrast Stuff,2022_Oct_14_1141,100,1200,1920,49,3,3,False,53,female,Bea,fr,407,0,0,1,1,2,0.0,--,--,--,--,--
Contrast Stuff,2022_Oct_14_1141,100,1200,1920,49,3,3,False,53,female,Bea,fr,408,0,0,2,0,2,0.0,--,--,--,--,--
Contrast Stuff,2022_Oct_14_1141,100,1200,1920,49,3,3,False,53,female,Bea,fr,409,0,0,2,0,2,0.0,--,--,--,--,--
Contrast Stuff,2022_Oct_14_1141,100,1200,1920,49,3,3,False,53,female,Bea,fr,410,0,0,2,1,2,0.0,--,--,--,--,--
Contrast Stuff,2022_Oct_14_1141,100,1200,1920,49,3,3,False,53,female,Bea,fr,411,0,0,1,0,2,0.0,--,--,--,--,--
Contrast Stuff,2022_Oct_14_1141,100,1200,1920,49,3,3,False,53,female,Bea,fr,412,0,0,1,1,2,0.0,--,--,--,--,--
Contrast Stuff,2022_Oct_14_1141,100,1200,1920,49,3,3,False,53,female,Bea,fr,413,0,0,2,1,2,0.0,--,--,--,--,--
Contrast Stuff,2022_Oct_14_1141,100,1200,1920,49,3,3,False,53,female,Bea,fr,414,0,0,2,1,2,0.0,--,--,--,--,--
Contrast Stuff,2022_Oct_14_1141,100,1200,1920,49,3,3,False,53,female,Bea,fr,415,0,0,1,0,2,0.0,--,--,--,--,--
Contrast Stuff,2022_Oct_14_1141,100,1200,1920,49,3,3,False,53,female,Bea,fr,416,0,0,1,0,2,0.0,--,--,--,--,--
Contrast Stuff,2022_Oct_14_1141,100,1200,1920,49,3,3,False,53,female,Bea,fr,417,0,0,1,1,2,0.0,--,--,--,--,--
Contrast Stuff,2022_Oct_14_1141,100,1200,1920,49,3,3,False,53,female,Bea,fr,418,0,0,2,0,2,0.0,--,--,--,--,--
Contrast Stuff,2022_Oct_14_1141,100,1200,1920,49,3,3,False,53,female,Bea,fr,419,0,0,1,0,2,0.0,--,--,--,--,--
Contrast Stuff,2022_Oct_14_1141,100,1200,1920,49,3,3,False,53,female,Bea,fr,420,0,0,2,0,2,0.0,--,--,--,--,--
Contrast Stuff,2022_Oct_14_1141,100,1200,1920,49,3,3,False,53,female,Bea,fr,421,0,0,1,0,2,0.0,--,--,--,--,--
Contrast Stuff,2022_Oct_14_1141,100,1200,1920,49,3,3,False,53,female,Bea,fr,422,0,0,1,1,2,0.0,--,--,--,--,--
Contrast Stuff,2022_Oct_14_1141,100,1200,1920,49,3,3,False,53,female,Bea,fr,423,0,0,2,0,2,0.0,--,--,--,--,--
Contrast Stuff,2022_Oct_14_1141,100,1200,1920,49,3,3,False,53,female,Bea,fr,424,0,0,2,0,2,0.0,--,--,--,--,--
Contrast Stuff,2022_Oct_14_1141,100,1200,1920,49,3,3,False,53,female,Bea,fr,425,0,0,2,0,2,0.0,--,--,--,--,--
Contrast Stuff,2022_Oct_14_1141,100,1200,1920,49,3,3,False,53,female,Bea,fr,426,0,0,2,0,2,0.0,--,--,--,--,--
Contrast Stuff,2022_Oct_14_1141,100,1200,1920,49,3,3,False,53,female,Bea,fr,427,0,0,2,0,2,0.0,--,--,--,--,--
Contrast Stuff,2022_Oct_14_1141,100,1200,1920,49,3,3,False,53,female,Bea,fr,428,0,0,1,0,2,0.0,--,--,--,--,--
Contrast Stuff,2022_Oct_14_1141,100,1200,1920,49,3,3,False,53,female,Bea,fr,429,0,0,1,0,2,0.0,--,--,--,--,--
Contrast Stuff,2022_Oct_14_1141,100,1200,1920,49,3,3,False,53,female,Bea,fr,430,0,0,1,0,2,0.0,--,--,--,--,--
Contrast Stuff,2022_Oct_14_1141,100,1200,1920,49,3,3,False,53,female,Bea,fr,431,0,0,1,0,2,0.0,--,--,--,--,--
Contrast Stuff,2022_Oct_14_1141,100,1200,1920,49,3,3,False,53,female,Bea,fr,432,0,0,1,1,2,0.0,--,--,--,--,--
Contrast Stuff,2022_Oct_14_1141,100,1200,1920,49,3,3,False,53,female,Bea,fr,433,0,0,1,1,2,0.0,--,--,--,--,--
Contrast Stuff,2022_Oct_14_1141,100,1200,1920,49,3,3,False,53,female,Bea,fr,434,0,0,2,1,2,0.0,--,--,--,--,--
Contrast Stuff,2022_Oct_14_1141,100,1200,1920,49,3,3,False,53,female,Bea,fr,435,0,0,1,1,2,0.0,--,--,--,--,--
Contrast Stuff,2022_Oct_14_1141,100,1200,1920,49,3,3,False,53,female,Bea,fr,436,0,0,1,0,2,0.0,--,--,--,--,--
Contrast Stuff,2022_Oct_14_1141,100,1200,1920,49,3,3,False,53,female,Bea,fr,437,0,0,2,0,2,0.0,--,--,--,--,--
Contrast Stuff,2022_Oct_14_1141,100,1200,1920,49,3,3,False,53,female,Bea,fr,438,0,0,1,1,2,0.0,--,--,--,--,--
Contrast Stuff,2022_Oct_14_1141,100,1200,1920,49,3,3,False,53,female,Bea,fr,439,0,0,1,0,2,0.0,--,--,--,--,--
Contrast Stuff,2022_Oct_14_1141,100,1200,1920,49,3,3,False,53,female,Bea,fr,440,0,0,1,1,2,0.0,--,--,--,--,--
Contrast Stuff,2022_Oct_14_1141,100,1200,1920,49,3,3,False,53,female,Bea,fr,441,0,0,1,0,2,0.0,--,--,--,--,--
Contrast Stuff,2022_Oct_14_1141,100,1200,1920,49,3,3,False,53,female,Bea,fr,442,0,0,2,1,2,0.0,--,--,--,--,--
Contrast Stuff,2022_Oct_14_1141,100,1200,1920,49,3,3,False,53,female,Bea,fr,443,0,0,2,0,2,0.0,--,--,--,--,--
Contrast Stuff,2022_Oct_14_1141,100,1200,1920,49,3,3,False,53,female,Bea,fr,444,0,0,2,1,2,0.0,--,--,--,--,--
Contrast Stuff,2022_Oct_14_1141,100,1200,1920,49,3,3,False,53,female,Bea,fr,445,0,0,1,0,2,0.0,--,--,--,--,--
Contrast Stuff,2022_Oct_14_1141,100,1200,1920,49,3,3,False,53,female,Bea,fr,446,0,0,2,1,2,0.0,--,--,--,--,--
Contrast Stuff,2022_Oct_14_1141,100,1200,1920,49,3,3,False,53,female,Bea,fr,447,0,0,2,1,2,0.0,--,--,--,--,--
Contrast Stuff,2022_Oct_14_1141,100,1200,1920,49,3,3,False,53,female,Bea,fr,448,0,0,2,0,2,0.0,--,--,--,--,--
Contrast Stuff,2022_Oct_14_1141,100,1200,1920,49,3,3,False,53,female,Bea,fr,449,0,0,1,0,2,0.0,--,--,--,--,--
Contrast Stuff,2022_Oct_14_1141,100,1200,1920,49,3,3,False,53,female,Bea,fr,450,0,0,2,1,2,0.0,--,--,--,--,--
Contrast Stuff,2022_Oct_14_1141,100,1200,1920,49,3,3,False,53,female,Bea,fr,451,0,0,2,0,2,0.0,--,--,--,--,--
Contrast Stuff,2022_Oct_14_1141,100,1200,1920,49,3,3,False,53,female,Bea,fr,452,0,0,1,0,2,0.0,--,--,--,--,--
Contrast Stuff,2022_Oct_14_1141,100,1200,1920,49,3,3,False,53,female,Bea,fr,453,0,0,2,1,2,0.0,--,--,--,--,--
Contrast Stuff,2022_Oct_14_1141,100,1200,1920,49,3,3,False,53,female,Bea,fr,454,0,0,2,0,2,0.0,--,--,--,--,--
Contrast Stuff,2022_Oct_14_1141,100,1200,1920,49,3,3,False,53,female,Bea,fr,455,0,0,1,0,2,0.0,--,--,--,--,--
Contrast Stuff,2022_Oct_14_1141,100,1200,1920,49,3,3,False,53,female,Bea,fr,456,0,0,1,1,2,0.0,--,--,--,--,--
Contrast Stuff,2022_Oct_14_1141,100,1200,1920,49,3,3,False,53,female,Bea,fr,457,0,0,1,0,2,0.0,--,--,--,--,--
Contrast Stuff,2022_Oct_14_1141,100,1200,1920,49,3,3,False,53,female,Bea,fr,458,0,0,1,1,2,0.0,--,--,--,--,--
Contrast Stuff,2022_Oct_14_1141,100,1200,1920,49,3,3,False,53,female,Bea,fr,459,0,0,2,0,2,0.0,--,--,--,--,--
Contrast Stuff,2022_Oct_14_1141,100,1200,1920,49,3,3,False,53,female,Bea,fr,460,0,0,1,1,2,0.0,--,--,--,--,--
Contrast Stuff,2022_Oct_14_1141,100,1200,1920,49,3,3,False,53,female,Bea,fr,461,0,0,2,0,2,0.0,--,--,--,--,--
Contrast Stuff,2022_Oct_14_1141,100,1200,1920,49,3,3,False,53,female,Bea,fr,462,0,0,2,1,2,0.0,--,--,--,--,--
Contrast Stuff,2022_Oct_14_1141,100,1200,1920,49,3,3,False,53,female,Bea,fr,463,0,0,2,0,2,0.0,--,--,--,--,--
Contrast Stuff,2022_Oct_14_1141,100,1200,1920,49,3,3,False,53,female,Bea,fr,464,0,0,2,1,2,0.0,--,--,--,--,--
Contrast Stuff,2022_Oct_14_1141,100,1200,1920,49,3,3,False,53,female,Bea,fr,465,0,0,1,1,2,0.0,--,--,--,--,--
Contrast Stuff,2022_Oct_14_1141,100,1200,1920,49,3,3,False,53,female,Bea,fr,466,0,0,1,1,2,0.0,--,--,--,--,--
Contrast Stuff,2022_Oct_14_1141,100,1200,1920,49,3,3,False,53,female,Bea,fr,467,0,0,2,0,2,0.0,--,--,--,--,--
Contrast Stuff,2022_Oct_14_1141,100,1200,1920,49,3,3,False,53,female,Bea,fr,468,0,0,2,1,2,0.0,--,--,--,--,--
Contrast Stuff,2022_Oct_14_1141,100,1200,1920,49,3,3,False,53,female,Bea,fr,469,0,0,1,1,2,0.0,--,--,--,--,--
Contrast Stuff,2022_Oct_14_1141,100,1200,1920,49,3,3,False,53,female,Bea,fr,470,0,0,1,1,2,0.0,--,--,--,--,--
Contrast Stuff,2022_Oct_14_1141,100,1200,1920,49,3,3,False,53,female,Bea,fr,471,0,0,2,1,2,0.0,--,--,--,--,--
Contrast Stuff,2022_Oct_14_1141,100,1200,1920,49,3,3,False,53,female,Bea,fr,472,0,0,1,1,2,0.0,--,--,--,--,--
Contrast Stuff,2022_Oct_14_1141,100,1200,1920,49,3,3,False,53,female,Bea,fr,473,0,0,1,0,2,0.0,--,--,--,--,--
Contrast Stuff,2022_Oct_14_1141,100,1200,1920,49,3,3,False,53,female,Bea,fr,474,0,0,2,0,2,0.0,--,--,--,--,--
Contrast Stuff,2022_Oct_14_1141,100,1200,1920,49,3,3,False,53,female,Bea,fr,475,0,0,2,1,2,0.0,--,--,--,--,--
Contrast Stuff,2022_Oct_14_1141,100,1200,1920,49,3,3,False,53,female,Bea,fr,476,0,0,2,1,2,0.0,--,--,--,--,--
Contrast Stuff,2022_Oct_14_1141,100,1200,1920,49,3,3,False,53,female,Bea,fr,477,0,0,1,1,2,0.0,--,--,--,--,--
Contrast Stuff,2022_Oct_14_1141,100,1200,1920,49,3,3,False,53,female,Bea,fr,478,0,0,2,1,2,0.0,--,--,--,--,--
Contrast Stuff,2022_Oct_14_1141,100,1200,1920,49,3,3,False,53,female,Bea,fr,479,0,0,2,1,2,0.0,--,--,--,--,--
Contrast Stuff,2022_Oct_14_1141,100,1200,1920,49,3,3,False,53,female,Bea,fr,480,0,0,1,0,2,0.0,--,--,--,--,--
Contrast Stuff,2022_Oct_14_1141,100,1200,1920,49,3,3,False,53,female,Bea,fr,481,90,0,2,1,1,0.0,--,--,--,--,--
Contrast Stuff,2022_Oct_14_1141,100,1200,1920,49,3,3,False,53,female,Bea,fr,482,90,0,2,1,1,0.0,--,--,--,--,--
Contrast Stuff,2022_Oct_14_1141,100,1200,1920,49,3,3,False,53,female,Bea,fr,483,90,0,1,1,1,0.0,--,--,--,--,--
Contrast Stuff,2022_Oct_14_1141,100,1200,1920,49,3,3,False,53,female,Bea,fr,484,90,0,1,1,1,0.0,--,--,--,--,--
Contrast Stuff,2022_Oct_14_1141,100,1200,1920,49,3,3,False,53,female,Bea,fr,485,90,0,1,0,1,0.0,--,--,--,--,--
Contrast Stuff,2022_Oct_14_1141,100,1200,1920,49,3,3,False,53,female,Bea,fr,486,90,0,2,1,1,0.0,--,--,--,--,--
Contrast Stuff,2022_Oct_14_1141,100,1200,1920,49,3,3,False,53,female,Bea,fr,487,90,0,2,1,1,0.0,--,--,--,--,--
Contrast Stuff,2022_Oct_14_1141,100,1200,1920,49,3,3,False,53,female,Bea,fr,488,90,0,2,1,1,0.0,--,--,--,--,--
Contrast Stuff,2022_Oct_14_1141,100,1200,1920,49,3,3,False,53,female,Bea,fr,489,90,0,2,1,1,0.0,--,--,--,--,--
Contrast Stuff,2022_Oct_14_1141,100,1200,1920,49,3,3,False,53,female,Bea,fr,490,90,0,1,0,1,0.0,--,--,--,--,--
Contrast Stuff,2022_Oct_14_1141,100,1200,1920,49,3,3,False,53,female,Bea,fr,491,90,0,2,0,1,0.0,--,--,--,--,--
Contrast Stuff,2022_Oct_14_1141,100,1200,1920,49,3,3,False,53,female,Bea,fr,492,90,0,2,1,1,0.0,--,--,--,--,--
Contrast Stuff,2022_Oct_14_1141,100,1200,1920,49,3,3,False,53,female,Bea,fr,493,90,0,2,0,1,0.0,--,--,--,--,--
Contrast Stuff,2022_Oct_14_1141,100,1200,1920,49,3,3,False,53,female,Bea,fr,494,90,0,2,0,1,0.0,--,--,--,--,--
Contrast Stuff,2022_Oct_14_1141,100,1200,1920,49,3,3,False,53,female,Bea,fr,495,90,0,2,1,1,0.0,--,--,--,--,--
Contrast Stuff,2022_Oct_14_1141,100,1200,1920,49,3,3,False,53,female,Bea,fr,496,90,0,2,1,1,0.0,--,--,--,--,--
Contrast Stuff,2022_Oct_14_1141,100,1200,1920,49,3,3,False,53,female,Bea,fr,497,90,0,1,1,1,0.0,--,--,--,--,--
Contrast Stuff,2022_Oct_14_1141,100,1200,1920,49,3,3,False,53,female,Bea,fr,498,90,0,2,0,1,0.0,--,--,--,--,--
Contrast Stuff,2022_Oct_14_1141,100,1200,1920,49,3,3,False,53,female,Bea,fr,499,90,0,2,0,1,0.0,--,--,--,--,--
Contrast Stuff,2022_Oct_14_1141,100,1200,1920,49,3,3,False,53,female,Bea,fr,500,90,0,2,0,1,0.0,--,--,--,--,--
Contrast Stuff,2022_Oct_14_1141,100,1200,1920,49,3,3,False,53,female,Bea,fr,501,90,0,2,0,1,0.0,--,--,--,--,--
Contrast Stuff,2022_Oct_14_1141,100,1200,1920,49,3,3,False,53,female,Bea,fr,502,90,0,2,0,1,0.0,--,--,--,--,--
Contrast Stuff,2022_Oct_14_1141,100,1200,1920,49,3,3,False,53,female,Bea,fr,503,90,0,1,0,1,0.0,--,--,--,--,--
Contrast Stuff,2022_Oct_14_1141,100,1200,1920,49,3,3,False,53,female,Bea,fr,504,90,0,2,1,1,0.0,--,--,--,--,--
Contrast Stuff,2022_Oct_14_1141,100,1200,1920,49,3,3,False,53,female,Bea,fr,505,90,0,2,0,1,0.0,--,--,--,--,--
Contrast Stuff,2022_Oct_14_1141,100,1200,1920,49,3,3,False,53,female,Bea,fr,506,90,0,1,1,1,0.0,--,--,--,--,--
Contrast Stuff,2022_Oct_14_1141,100,1200,1920,49,3,3,False,53,female,Bea,fr,507,90,0,1,0,1,0.0,--,--,--,--,--
Contrast Stuff,2022_Oct_14_1141,100,1200,1920,49,3,3,False,53,female,Bea,fr,508,90,0,1,0,1,0.0,--,--,--,--,--
Contrast Stuff,2022_Oct_14_1141,100,1200,1920,49,3,3,False,53,female,Bea,fr,509,90,0,1,0,1,0.0,--,--,--,--,--
Contrast Stuff,2022_Oct_14_1141,100,1200,1920,49,3,3,False,53,female,Bea,fr,510,90,0,1,1,1,0.0,--,--,--,--,--
Contrast Stuff,2022_Oct_14_1141,100,1200,1920,49,3,3,False,53,female,Bea,fr,511,90,0,1,1,1,0.0,--,--,--,--,--
Contrast Stuff,2022_Oct_14_1141,100,1200,1920,49,3,3,False,53,female,Bea,fr,512,90,0,2,1,1,0.0,--,--,--,--,--
Contrast Stuff,2022_Oct_14_1141,100,1200,1920,49,3,3,False,53,female,Bea,fr,513,90,0,2,0,1,0.0,--,--,--,--,--
Contrast Stuff,2022_Oct_14_1141,100,1200,1920,49,3,3,False,53,female,Bea,fr,514,90,0,1,0,1,0.0,--,--,--,--,--
Contrast Stuff,2022_Oct_14_1141,100,1200,1920,49,3,3,False,53,female,Bea,fr,515,90,0,1,1,1,0.0,--,--,--,--,--
Contrast Stuff,2022_Oct_14_1141,100,1200,1920,49,3,3,False,53,female,Bea,fr,516,90,0,1,1,1,0.0,--,--,--,--,--
Contrast Stuff,2022_Oct_14_1141,100,1200,1920,49,3,3,False,53,female,Bea,fr,517,90,0,1,1,1,0.0,--,--,--,--,--
Contrast Stuff,2022_Oct_14_1141,100,1200,1920,49,3,3,False,53,female,Bea,fr,518,90,0,1,1,1,0.0,--,--,--,--,--
Contrast Stuff,2022_Oct_14_1141,100,1200,1920,49,3,3,False,53,female,Bea,fr,519,90,0,1,0,1,0.0,--,--,--,--,--
Contrast Stuff,2022_Oct_14_1141,100,1200,1920,49,3,3,False,53,female,Bea,fr,520,90,0,2,0,1,0.0,--,--,--,--,--
Contrast Stuff,2022_Oct_14_1141,100,1200,1920,49,3,3,False,53,female,Bea,fr,521,90,0,1,1,1,0.0,--,--,--,--,--
Contrast Stuff,2022_Oct_14_1141,100,1200,1920,49,3,3,False,53,female,Bea,fr,522,90,0,2,1,1,0.0,--,--,--,--,--
Contrast Stuff,2022_Oct_14_1141,100,1200,1920,49,3,3,False,53,female,Bea,fr,523,90,0,1,1,1,0.0,--,--,--,--,--
Contrast Stuff,2022_Oct_14_1141,100,1200,1920,49,3,3,False,53,female,Bea,fr,524,90,0,2,1,1,0.0,--,--,--,--,--
Contrast Stuff,2022_Oct_14_1141,100,1200,1920,49,3,3,False,53,female,Bea,fr,525,90,0,2,1,1,0.0,--,--,--,--,--
Contrast Stuff,2022_Oct_14_1141,100,1200,1920,49,3,3,False,53,female,Bea,fr,526,90,0,2,1,1,0.0,--,--,--,--,--
Contrast Stuff,2022_Oct_14_1141,100,1200,1920,49,3,3,False,53,female,Bea,fr,527,90,0,1,1,1,0.0,--,--,--,--,--
Contrast Stuff,2022_Oct_14_1141,100,1200,1920,49,3,3,False,53,female,Bea,fr,528,90,0,1,1,1,0.0,--,--,--,--,--
Contrast Stuff,2022_Oct_14_1141,100,1200,1920,49,3,3,False,53,female,Bea,fr,529,90,0,2,0,1,0.0,--,--,--,--,--
Contrast Stuff,2022_Oct_14_1141,100,1200,1920,49,3,3,False,53,female,Bea,fr,530,90,0,2,1,1,0.0,--,--,--,--,--
Contrast Stuff,2022_Oct_14_1141,100,1200,1920,49,3,3,False,53,female,Bea,fr,531,90,0,1,0,1,0.0,--,--,--,--,--
Contrast Stuff,2022_Oct_14_1141,100,1200,1920,49,3,3,False,53,female,Bea,fr,532,90,0,1,0,1,0.0,--,--,--,--,--
Contrast Stuff,2022_Oct_14_1141,100,1200,1920,49,3,3,False,53,female,Bea,fr,533,90,0,2,1,1,0.0,--,--,--,--,--
Contrast Stuff,2022_Oct_14_1141,100,1200,1920,49,3,3,False,53,female,Bea,fr,534,90,0,1,0,1,0.0,--,--,--,--,--
Contrast Stuff,2022_Oct_14_1141,100,1200,1920,49,3,3,False,53,female,Bea,fr,535,90,0,2,0,1,0.0,--,--,--,--,--
Contrast Stuff,2022_Oct_14_1141,100,1200,1920,49,3,3,False,53,female,Bea,fr,536,90,0,2,0,1,0.0,--,--,--,--,--
Contrast Stuff,2022_Oct_14_1141,100,1200,1920,49,3,3,False,53,female,Bea,fr,537,90,0,2,1,1,0.0,--,--,--,--,--
Contrast Stuff,2022_Oct_14_1141,100,1200,1920,49,3,3,False,53,female,Bea,fr,538,90,0,2,1,1,0.0,--,--,--,--,--
Contrast Stuff,2022_Oct_14_1141,100,1200,1920,49,3,3,False,53,female,Bea,fr,539,90,0,1,0,1,0.0,--,--,--,--,--
Contrast Stuff,2022_Oct_14_1141,100,1200,1920,49,3,3,False,53,female,Bea,fr,540,90,0,1,0,1,0.0,--,--,--,--,--
Contrast Stuff,2022_Oct_14_1141,100,1200,1920,49,3,3,False,53,female,Bea,fr,541,90,0,1,0,1,0.0,--,--,--,--,--
Contrast Stuff,2022_Oct_14_1141,100,1200,1920,49,3,3,False,53,female,Bea,fr,542,90,0,1,1,1,0.0,--,--,--,--,--
Contrast Stuff,2022_Oct_14_1141,100,1200,1920,49,3,3,False,53,female,Bea,fr,543,90,0,1,1,1,0.0,--,--,--,--,--
Contrast Stuff,2022_Oct_14_1141,100,1200,1920,49,3,3,False,53,female,Bea,fr,544,90,0,2,1,1,0.0,--,--,--,--,--
Contrast Stuff,2022_Oct_14_1141,100,1200,1920,49,3,3,False,53,female,Bea,fr,545,90,0,2,0,1,0.0,--,--,--,--,--
Contrast Stuff,2022_Oct_14_1141,100,1200,1920,49,3,3,False,53,female,Bea,fr,546,90,0,1,0,1,0.0,--,--,--,--,--
Contrast Stuff,2022_Oct_14_1141,100,1200,1920,49,3,3,False,53,female,Bea,fr,547,90,0,2,0,1,0.0,--,--,--,--,--
Contrast Stuff,2022_Oct_14_1141,100,1200,1920,49,3,3,False,53,female,Bea,fr,548,90,0,1,1,1,0.0,--,--,--,--,--
Contrast Stuff,2022_Oct_14_1141,100,1200,1920,49,3,3,False,53,female,Bea,fr,549,90,0,2,0,1,0.0,--,--,--,--,--
Contrast Stuff,2022_Oct_14_1141,100,1200,1920,49,3,3,False,53,female,Bea,fr,550,90,0,2,0,1,0.0,--,--,--,--,--
Contrast Stuff,2022_Oct_14_1141,100,1200,1920,49,3,3,False,53,female,Bea,fr,551,90,0,1,0,1,0.0,--,--,--,--,--
Contrast Stuff,2022_Oct_14_1141,100,1200,1920,49,3,3,False,53,female,Bea,fr,552,90,0,2,0,1,0.0,--,--,--,--,--
Contrast Stuff,2022_Oct_14_1141,100,1200,1920,49,3,3,False,53,female,Bea,fr,553,90,0,1,1,1,0.0,--,--,--,--,--
Contrast Stuff,2022_Oct_14_1141,100,1200,1920,49,3,3,False,53,female,Bea,fr,554,90,0,1,0,1,0.0,--,--,--,--,--
Contrast Stuff,2022_Oct_14_1141,100,1200,1920,49,3,3,False,53,female,Bea,fr,555,90,0,1,0,1,0.0,--,--,--,--,--
Contrast Stuff,2022_Oct_14_1141,100,1200,1920,49,3,3,False,53,female,Bea,fr,556,90,0,1,0,1,0.0,--,--,--,--,--
Contrast Stuff,2022_Oct_14_1141,100,1200,1920,49,3,3,False,53,female,Bea,fr,557,90,0,1,1,1,0.0,--,--,--,--,--
Contrast Stuff,2022_Oct_14_1141,100,1200,1920,49,3,3,False,53,female,Bea,fr,558,90,0,1,1,1,0.0,--,--,--,--,--
Contrast Stuff,2022_Oct_14_1141,100,1200,1920,49,3,3,False,53,female,Bea,fr,559,90,0,2,0,1,0.0,--,--,--,--,--
Contrast Stuff,2022_Oct_14_1141,100,1200,1920,49,3,3,False,53,female,Bea,fr,560,90,0,1,0,1,0.0,--,--,--,--,--
Contrast Stuff,2022_Oct_14_1141,100,1200,1920,49,3,3,False,53,female,Bea,fr,561,0,0,1,1,2,0.0,--,--,--,--,--
Contrast Stuff,2022_Oct_14_1141,100,1200,1920,49,3,3,False,53,female,Bea,fr,562,0,0,2,1,2,0.0,--,--,--,--,--
Contrast Stuff,2022_Oct_14_1141,100,1200,1920,49,3,3,False,53,female,Bea,fr,563,0,0,2,0,2,0.0,--,--,--,--,--
Contrast Stuff,2022_Oct_14_1141,100,1200,1920,49,3,3,False,53,female,Bea,fr,564,0,0,1,1,2,0.0,--,--,--,--,--
Contrast Stuff,2022_Oct_14_1141,100,1200,1920,49,3,3,False,53,female,Bea,fr,565,0,0,1,0,2,0.0,--,--,--,--,--
Contrast Stuff,2022_Oct_14_1141,100,1200,1920,49,3,3,False,53,female,Bea,fr,566,0,0,2,1,2,0.0,--,--,--,--,--
Contrast Stuff,2022_Oct_14_1141,100,1200,1920,49,3,3,False,53,female,Bea,fr,567,0,0,1,1,2,0.0,--,--,--,--,--
Contrast Stuff,2022_Oct_14_1141,100,1200,1920,49,3,3,False,53,female,Bea,fr,568,0,0,2,0,2,0.0,--,--,--,--,--
Contrast Stuff,2022_Oct_14_1141,100,1200,1920,49,3,3,False,53,female,Bea,fr,569,0,0,2,0,2,0.0,--,--,--,--,--
Contrast Stuff,2022_Oct_14_1141,100,1200,1920,49,3,3,False,53,female,Bea,fr,570,0,0,2,1,2,0.0,--,--,--,--,--
Contrast Stuff,2022_Oct_14_1141,100,1200,1920,49,3,3,False,53,female,Bea,fr,571,0,0,1,0,2,0.0,--,--,--,--,--
Contrast Stuff,2022_Oct_14_1141,100,1200,1920,49,3,3,False,53,female,Bea,fr,572,0,0,1,1,2,0.0,--,--,--,--,--
Contrast Stuff,2022_Oct_14_1141,100,1200,1920,49,3,3,False,53,female,Bea,fr,573,0,0,2,1,2,0.0,--,--,--,--,--
Contrast Stuff,2022_Oct_14_1141,100,1200,1920,49,3,3,False,53,female,Bea,fr,574,0,0,2,1,2,0.0,--,--,--,--,--
Contrast Stuff,2022_Oct_14_1141,100,1200,1920,49,3,3,False,53,female,Bea,fr,575,0,0,1,0,2,0.0,--,--,--,--,--
Contrast Stuff,2022_Oct_14_1141,100,1200,1920,49,3,3,False,53,female,Bea,fr,576,0,0,1,0,2,0.0,--,--,--,--,--
Contrast Stuff,2022_Oct_14_1141,100,1200,1920,49,3,3,False,53,female,Bea,fr,577,0,0,1,1,2,0.0,--,--,--,--,--
Contrast Stuff,2022_Oct_14_1141,100,1200,1920,49,3,3,False,53,female,Bea,fr,578,0,0,2,0,2,0.0,--,--,--,--,--
Contrast Stuff,2022_Oct_14_1141,100,1200,1920,49,3,3,False,53,female,Bea,fr,579,0,0,1,0,2,0.0,--,--,--,--,--
Contrast Stuff,2022_Oct_14_1141,100,1200,1920,49,3,3,False,53,female,Bea,fr,580,0,0,2,0,2,0.0,--,--,--,--,--
Contrast Stuff,2022_Oct_14_1141,100,1200,1920,49,3,3,False,53,female,Bea,fr,581,0,0,1,0,2,0.0,--,--,--,--,--
Contrast Stuff,2022_Oct_14_1141,100,1200,1920,49,3,3,False,53,female,Bea,fr,582,0,0,1,1,2,0.0,--,--,--,--,--
Contrast Stuff,2022_Oct_14_1141,100,1200,1920,49,3,3,False,53,female,Bea,fr,583,0,0,2,0,2,0.0,--,--,--,--,--
Contrast Stuff,2022_Oct_14_1141,100,1200,1920,49,3,3,False,53,female,Bea,fr,584,0,0,2,0,2,0.0,--,--,--,--,--
Contrast Stuff,2022_Oct_14_1141,100,1200,1920,49,3,3,False,53,female,Bea,fr,585,0,0,2,0,2,0.0,--,--,--,--,--
Contrast Stuff,2022_Oct_14_1141,100,1200,1920,49,3,3,False,53,female,Bea,fr,586,0,0,2,0,2,0.0,--,--,--,--,--
Contrast Stuff,2022_Oct_14_1141,100,1200,1920,49,3,3,False,53,female,Bea,fr,587,0,0,2,0,2,0.0,--,--,--,--,--
Contrast Stuff,2022_Oct_14_1141,100,1200,1920,49,3,3,False,53,female,Bea,fr,588,0,0,1,0,2,0.0,--,--,--,--,--
Contrast Stuff,2022_Oct_14_1141,100,1200,1920,49,3,3,False,53,female,Bea,fr,589,0,0,1,0,2,0.0,--,--,--,--,--
Contrast Stuff,2022_Oct_14_1141,100,1200,1920,49,3,3,False,53,female,Bea,fr,590,0,0,1,0,2,0.0,--,--,--,--,--
Contrast Stuff,2022_Oct_14_1141,100,1200,1920,49,3,3,False,53,female,Bea,fr,591,0,0,1,0,2,0.0,--,--,--,--,--
Contrast Stuff,2022_Oct_14_1141,100,1200,1920,49,3,3,False,53,female,Bea,fr,592,0,0,1,1,2,0.0,--,--,--,--,--
Contrast Stuff,2022_Oct_14_1141,100,1200,1920,49,3,3,False,53,female,Bea,fr,593,0,0,1,1,2,0.0,--,--,--,--,--
Contrast Stuff,2022_Oct_14_1141,100,1200,1920,49,3,3,False,53,female,Bea,fr,594,0,0,2,1,2,0.0,--,--,--,--,--
Contrast Stuff,2022_Oct_14_1141,100,1200,1920,49,3,3,False,53,female,Bea,fr,595,0,0,1,1,2,0.0,--,--,--,--,--
Contrast Stuff,2022_Oct_14_1141,100,1200,1920,49,3,3,False,53,female,Bea,fr,596,0,0,1,0,2,0.0,--,--,--,--,--
Contrast Stuff,2022_Oct_14_1141,100,1200,1920,49,3,3,False,53,female,Bea,fr,597,0,0,2,0,2,0.0,--,--,--,--,--
Contrast Stuff,2022_Oct_14_1141,100,1200,1920,49,3,3,False,53,female,Bea,fr,598,0,0,1,1,2,0.0,--,--,--,--,--
Contrast Stuff,2022_Oct_14_1141,100,1200,1920,49,3,3,False,53,female,Bea,fr,599,0,0,1,0,2,0.0,--,--,--,--,--
Contrast Stuff,2022_Oct_14_1141,100,1200,1920,49,3,3,False,53,female,Bea,fr,600,0,0,1,1,2,0.0,--,--,--,--,--
Contrast Stuff,2022_Oct_14_1141,100,1200,1920,49,3,3,False,53,female,Bea,fr,601,0,0,1,0,2,0.0,--,--,--,--,--
Contrast Stuff,2022_Oct_14_1141,100,1200,1920,49,3,3,False,53,female,Bea,fr,602,0,0,2,1,2,0.0,--,--,--,--,--
Contrast Stuff,2022_Oct_14_1141,100,1200,1920,49,3,3,False,53,female,Bea,fr,603,0,0,2,0,2,0.0,--,--,--,--,--
Contrast Stuff,2022_Oct_14_1141,100,1200,1920,49,3,3,False,53,female,Bea,fr,604,0,0,2,1,2,0.0,--,--,--,--,--
Contrast Stuff,2022_Oct_14_1141,100,1200,1920,49,3,3,False,53,female,Bea,fr,605,0,0,1,0,2,0.0,--,--,--,--,--
Contrast Stuff,2022_Oct_14_1141,100,1200,1920,49,3,3,False,53,female,Bea,fr,606,0,0,2,1,2,0.0,--,--,--,--,--
Contrast Stuff,2022_Oct_14_1141,100,1200,1920,49,3,3,False,53,female,Bea,fr,607,0,0,2,1,2,0.0,--,--,--,--,--
Contrast Stuff,2022_Oct_14_1141,100,1200,1920,49,3,3,False,53,female,Bea,fr,608,0,0,2,0,2,0.0,--,--,--,--,--
Contrast Stuff,2022_Oct_14_1141,100,1200,1920,49,3,3,False,53,female,Bea,fr,609,0,0,1,0,2,0.0,--,--,--,--,--
Contrast Stuff,2022_Oct_14_1141,100,1200,1920,49,3,3,False,53,female,Bea,fr,610,0,0,2,1,2,0.0,--,--,--,--,--
Contrast Stuff,2022_Oct_14_1141,100,1200,1920,49,3,3,False,53,female,Bea,fr,611,0,0,2,0,2,0.0,--,--,--,--,--
Contrast Stuff,2022_Oct_14_1141,100,1200,1920,49,3,3,False,53,female,Bea,fr,612,0,0,1,0,2,0.0,--,--,--,--,--
Contrast Stuff,2022_Oct_14_1141,100,1200,1920,49,3,3,False,53,female,Bea,fr,613,0,0,2,1,2,0.0,--,--,--,--,--
Contrast Stuff,2022_Oct_14_1141,100,1200,1920,49,3,3,False,53,female,Bea,fr,614,0,0,2,0,2,0.0,--,--,--,--,--
Contrast Stuff,2022_Oct_14_1141,100,1200,1920,49,3,3,False,53,female,Bea,fr,615,0,0,1,0,2,0.0,--,--,--,--,--
Contrast Stuff,2022_Oct_14_1141,100,1200,1920,49,3,3,False,53,female,Bea,fr,616,0,0,1,1,2,0.0,--,--,--,--,--
Contrast Stuff,2022_Oct_14_1141,100,1200,1920,49,3,3,False,53,female,Bea,fr,617,0,0,1,0,2,0.0,--,--,--,--,--
Contrast Stuff,2022_Oct_14_1141,100,1200,1920,49,3,3,False,53,female,Bea,fr,618,0,0,1,1,2,0.0,--,--,--,--,--
Contrast Stuff,2022_Oct_14_1141,100,1200,1920,49,3,3,False,53,female,Bea,fr,619,0,0,2,0,2,0.0,--,--,--,--,--
Contrast Stuff,2022_Oct_14_1141,100,1200,1920,49,3,3,False,53,female,Bea,fr,620,0,0,1,1,2,0.0,--,--,--,--,--
Contrast Stuff,2022_Oct_14_1141,100,1200,1920,49,3,3,False,53,female,Bea,fr,621,0,0,2,0,2,0.0,--,--,--,--,--
Contrast Stuff,2022_Oct_14_1141,100,1200,1920,49,3,3,False,53,female,Bea,fr,622,0,0,2,1,2,0.0,--,--,--,--,--
Contrast Stuff,2022_Oct_14_1141,100,1200,1920,49,3,3,False,53,female,Bea,fr,623,0,0,2,0,2,0.0,--,--,--,--,--
Contrast Stuff,2022_Oct_14_1141,100,1200,1920,49,3,3,False,53,female,Bea,fr,624,0,0,2,1,2,0.0,--,--,--,--,--
Contrast Stuff,2022_Oct_14_1141,100,1200,1920,49,3,3,False,53,female,Bea,fr,625,0,0,1,1,2,0.0,--,--,--,--,--
Contrast Stuff,2022_Oct_14_1141,100,1200,1920,49,3,3,False,53,female,Bea,fr,626,0,0,1,1,2,0.0,--,--,--,--,--
Contrast Stuff,2022_Oct_14_1141,100,1200,1920,49,3,3,False,53,female,Bea,fr,627,0,0,2,0,2,0.0,--,--,--,--,--
Contrast Stuff,2022_Oct_14_1141,100,1200,1920,49,3,3,False,53,female,Bea,fr,628,0,0,2,1,2,0.0,--,--,--,--,--
Contrast Stuff,2022_Oct_14_1141,100,1200,1920,49,3,3,False,53,female,Bea,fr,629,0,0,1,1,2,0.0,--,--,--,--,--
Contrast Stuff,2022_Oct_14_1141,100,1200,1920,49,3,3,False,53,female,Bea,fr,630,0,0,1,1,2,0.0,--,--,--,--,--
Contrast Stuff,2022_Oct_14_1141,100,1200,1920,49,3,3,False,53,female,Bea,fr,631,0,0,2,1,2,0.0,--,--,--,--,--
Contrast Stuff,2022_Oct_14_1141,100,1200,1920,49,3,3,False,53,female,Bea,fr,632,0,0,1,1,2,0.0,--,--,--,--,--
Contrast Stuff,2022_Oct_14_1141,100,1200,1920,49,3,3,False,53,female,Bea,fr,633,0,0,1,0,2,0.0,--,--,--,--,--
Contrast Stuff,2022_Oct_14_1141,100,1200,1920,49,3,3,False,53,female,Bea,fr,634,0,0,2,0,2,0.0,--,--,--,--,--
Contrast Stuff,2022_Oct_14_1141,100,1200,1920,49,3,3,False,53,female,Bea,fr,635,0,0,2,1,2,0.0,--,--,--,--,--
Contrast Stuff,2022_Oct_14_1141,100,1200,1920,49,3,3,False,53,female,Bea,fr,636,0,0,2,1,2,0.0,--,--,--,--,--
Contrast Stuff,2022_Oct_14_1141,100,1200,1920,49,3,3,False,53,female,Bea,fr,637,0,0,1,1,2,0.0,--,--,--,--,--
Contrast Stuff,2022_Oct_14_1141,100,1200,1920,49,3,3,False,53,female,Bea,fr,638,0,0,2,1,2,0.0,--,--,--,--,--
Contrast Stuff,2022_Oct_14_1141,100,1200,1920,49,3,3,False,53,female,Bea,fr,639,0,0,2,1,2,0.0,--,--,--,--,--
Contrast Stuff,2022_Oct_14_1141,100,1200,1920,49,3,3,False,53,female,Bea,fr,640,0,0,1,0,2,0.0,--,--,--,--,--
Contrast Stuff,2022_Oct_14_1141,100,1200,1920,49,3,3,False,53,female,Bea,fr,641,361,0,1,1,3,0.0,--,--,--,--,--
Contrast Stuff,2022_Oct_14_1141,100,1200,1920,49,3,3,False,53,female,Bea,fr,642,361,0,1,1,3,0.0,--,--,--,--,--
Contrast Stuff,2022_Oct_14_1141,100,1200,1920,49,3,3,False,53,female,Bea,fr,643,361,0,1,0,3,0.0,--,--,--,--,--
Contrast Stuff,2022_Oct_14_1141,100,1200,1920,49,3,3,False,53,female,Bea,fr,644,361,0,2,0,3,0.0,--,--,--,--,--
Contrast Stuff,2022_Oct_14_1141,100,1200,1920,49,3,3,False,53,female,Bea,fr,645,361,0,2,1,3,0.0,--,--,--,--,--
Contrast Stuff,2022_Oct_14_1141,100,1200,1920,49,3,3,False,53,female,Bea,fr,646,361,0,2,0,3,0.0,--,--,--,--,--
Contrast Stuff,2022_Oct_14_1141,100,1200,1920,49,3,3,False,53,female,Bea,fr,647,361,0,2,0,3,0.0,--,--,--,--,--
Contrast Stuff,2022_Oct_14_1141,100,1200,1920,49,3,3,False,53,female,Bea,fr,648,361,0,2,0,3,0.0,--,--,--,--,--
Contrast Stuff,2022_Oct_14_1141,100,1200,1920,49,3,3,False,53,female,Bea,fr,649,361,0,1,0,3,0.0,--,--,--,--,--
Contrast Stuff,2022_Oct_14_1141,100,1200,1920,49,3,3,False,53,female,Bea,fr,650,361,0,1,1,3,0.0,--,--,--,--,--
Contrast Stuff,2022_Oct_14_1141,100,1200,1920,49,3,3,False,53,female,Bea,fr,651,361,0,2,1,3,0.0,--,--,--,--,--
Contrast Stuff,2022_Oct_14_1141,100,1200,1920,49,3,3,False,53,female,Bea,fr,652,361,0,2,1,3,0.0,--,--,--,--,--
Contrast Stuff,2022_Oct_14_1141,100,1200,1920,49,3,3,False,53,female,Bea,fr,653,361,0,1,1,3,0.0,--,--,--,--,--
Contrast Stuff,2022_Oct_14_1141,100,1200,1920,49,3,3,False,53,female,Bea,fr,654,361,0,1,0,3,0.0,--,--,--,--,--
Contrast Stuff,2022_Oct_14_1141,100,1200,1920,49,3,3,False,53,female,Bea,fr,655,361,0,2,0,3,0.0,--,--,--,--,--
Contrast Stuff,2022_Oct_14_1141,100,1200,1920,49,3,3,False,53,female,Bea,fr,656,361,0,2,0,3,0.0,--,--,--,--,--
Contrast Stuff,2022_Oct_14_1141,100,1200,1920,49,3,3,False,53,female,Bea,fr,657,361,0,1,0,3,0.0,--,--,--,--,--
Contrast Stuff,2022_Oct_14_1141,100,1200,1920,49,3,3,False,53,female,Bea,fr,658,361,0,2,1,3,0.0,--,--,--,--,--
Contrast Stuff,2022_Oct_14_1141,100,1200,1920,49,3,3,False,53,female,Bea,fr,659,361,0,1,1,3,0.0,--,--,--,--,--
Contrast Stuff,2022_Oct_14_1141,100,1200,1920,49,3,3,False,53,female,Bea,fr,660,361,0,2,0,3,0.0,--,--,--,--,--
Contrast Stuff,2022_Oct_14_1141,100,1200,1920,49,3,3,False,53,female,Bea,fr,661,361,0,1,0,3,0.0,--,--,--,--,--
Contrast Stuff,2022_Oct_14_1141,100,1200,1920,49,3,3,False,53,female,Bea,fr,662,361,0,2,0,3,0.0,--,--,--,--,--
Contrast Stuff,2022_Oct_14_1141,100,1200,1920,49,3,3,False,53,female,Bea,fr,663,361,0,2,1,3,0.0,--,--,--,--,--
Contrast Stuff,2022_Oct_14_1141,100,1200,1920,49,3,3,False,53,female,Bea,fr,664,361,0,2,1,3,0.0,--,--,--,--,--
Contrast Stuff,2022_Oct_14_1141,100,1200,1920,49,3,3,False,53,female,Bea,fr,665,361,0,2,0,3,0.0,--,--,--,--,--
Contrast Stuff,2022_Oct_14_1141,100,1200,1920,49,3,3,False,53,female,Bea,fr,666,361,0,1,1,3,0.0,--,--,--,--,--
Contrast Stuff,2022_Oct_14_1141,100,1200,1920,49,3,3,False,53,female,Bea,fr,667,361,0,2,1,3,0.0,--,--,--,--,--
Contrast Stuff,2022_Oct_14_1141,100,1200,1920,49,3,3,False,53,female,Bea,fr,668,361,0,1,0,3,0.0,--,--,--,--,--
Contrast Stuff,2022_Oct_14_1141,100,1200,1920,49,3,3,False,53,female,Bea,fr,669,361,0,1,0,3,0.0,--,--,--,--,--
Contrast Stuff,2022_Oct_14_1141,100,1200,1920,49,3,3,False,53,female,Bea,fr,670,361,0,1,1,3,0.0,--,--,--,--,--
Contrast Stuff,2022_Oct_14_1141,100,1200,1920,49,3,3,False,53,female,Bea,fr,671,361,0,2,1,3,0.0,--,--,--,--,--
Contrast Stuff,2022_Oct_14_1141,100,1200,1920,49,3,3,False,53,female,Bea,fr,672,361,0,1,0,3,0.0,--,--,--,--,--
Contrast Stuff,2022_Oct_14_1141,100,1200,1920,49,3,3,False,53,female,Bea,fr,673,361,0,1,0,3,0.0,--,--,--,--,--
Contrast Stuff,2022_Oct_14_1141,100,1200,1920,49,3,3,False,53,female,Bea,fr,674,361,0,2,0,3,0.0,--,--,--,--,--
Contrast Stuff,2022_Oct_14_1141,100,1200,1920,49,3,3,False,53,female,Bea,fr,675,361,0,1,1,3,0.0,--,--,--,--,--
Contrast Stuff,2022_Oct_14_1141,100,1200,1920,49,3,3,False,53,female,Bea,fr,676,361,0,1,1,3,0.0,--,--,--,--,--
Contrast Stuff,2022_Oct_14_1141,100,1200,1920,49,3,3,False,53,female,Bea,fr,677,361,0,2,0,3,0.0,--,--,--,--,--
Contrast Stuff,2022_Oct_14_1141,100,1200,1920,49,3,3,False,53,female,Bea,fr,678,361,0,1,0,3,0.0,--,--,--,--,--
Contrast Stuff,2022_Oct_14_1141,100,1200,1920,49,3,3,False,53,female,Bea,fr,679,361,0,2,1,3,0.0,--,--,--,--,--
Contrast Stuff,2022_Oct_14_1141,100,1200,1920,49,3,3,False,53,female,Bea,fr,680,361,0,1,0,3,0.0,--,--,--,--,--
Contrast Stuff,2022_Oct_14_1141,100,1200,1920,49,3,3,False,53,female,Bea,fr,681,361,0,2,1,3,0.0,--,--,--,--,--
Contrast Stuff,2022_Oct_14_1141,100,1200,1920,49,3,3,False,53,female,Bea,fr,682,361,0,2,0,3,0.0,--,--,--,--,--
Contrast Stuff,2022_Oct_14_1141,100,1200,1920,49,3,3,False,53,female,Bea,fr,683,361,0,2,0,3,0.0,--,--,--,--,--
Contrast Stuff,2022_Oct_14_1141,100,1200,1920,49,3,3,False,53,female,Bea,fr,684,361,0,1,1,3,0.0,--,--,--,--,--
Contrast Stuff,2022_Oct_14_1141,100,1200,1920,49,3,3,False,53,female,Bea,fr,685,361,0,1,1,3,0.0,--,--,--,--,--
Contrast Stuff,2022_Oct_14_1141,100,1200,1920,49,3,3,False,53,female,Bea,fr,686,361,0,1,1,3,0.0,--,--,--,--,--
Contrast Stuff,2022_Oct_14_1141,100,1200,1920,49,3,3,False,53,female,Bea,fr,687,361,0,2,1,3,0.0,--,--,--,--,--
Contrast Stuff,2022_Oct_14_1141,100,1200,1920,49,3,3,False,53,female,Bea,fr,688,361,0,2,0,3,0.0,--,--,--,--,--
Contrast Stuff,2022_Oct_14_1141,100,1200,1920,49,3,3,False,53,female,Bea,fr,689,361,0,1,0,3,0.0,--,--,--,--,--
Contrast Stuff,2022_Oct_14_1141,100,1200,1920,49,3,3,False,53,female,Bea,fr,690,361,0,1,0,3,0.0,--,--,--,--,--
Contrast Stuff,2022_Oct_14_1141,100,1200,1920,49,3,3,False,53,female,Bea,fr,691,361,0,2,1,3,0.0,--,--,--,--,--
Contrast Stuff,2022_Oct_14_1141,100,1200,1920,49,3,3,False,53,female,Bea,fr,692,361,0,2,0,3,0.0,--,--,--,--,--
Contrast Stuff,2022_Oct_14_1141,100,1200,1920,49,3,3,False,53,female,Bea,fr,693,361,0,2,1,3,0.0,--,--,--,--,--
Contrast Stuff,2022_Oct_14_1141,100,1200,1920,49,3,3,False,53,female,Bea,fr,694,361,0,2,0,3,0.0,--,--,--,--,--
Contrast Stuff,2022_Oct_14_1141,100,1200,1920,49,3,3,False,53,female,Bea,fr,695,361,0,1,0,3,0.0,--,--,--,--,--
Contrast Stuff,2022_Oct_14_1141,100,1200,1920,49,3,3,False,53,female,Bea,fr,696,361,0,1,0,3,0.0,--,--,--,--,--
Contrast Stuff,2022_Oct_14_1141,100,1200,1920,49,3,3,False,53,female,Bea,fr,697,361,0,2,1,3,0.0,--,--,--,--,--
Contrast Stuff,2022_Oct_14_1141,100,1200,1920,49,3,3,False,53,female,Bea,fr,698,361,0,1,0,3,0.0,--,--,--,--,--
Contrast Stuff,2022_Oct_14_1141,100,1200,1920,49,3,3,False,53,female,Bea,fr,699,361,0,1,1,3,0.0,--,--,--,--,--
Contrast Stuff,2022_Oct_14_1141,100,1200,1920,49,3,3,False,53,female,Bea,fr,700,361,0,2,0,3,0.0,--,--,--,--,--
Contrast Stuff,2022_Oct_14_1141,100,1200,1920,49,3,3,False,53,female,Bea,fr,701,361,0,2,0,3,0.0,--,--,--,--,--
Contrast Stuff,2022_Oct_14_1141,100,1200,1920,49,3,3,False,53,female,Bea,fr,702,361,0,1,0,3,0.0,--,--,--,--,--
Contrast Stuff,2022_Oct_14_1141,100,1200,1920,49,3,3,False,53,female,Bea,fr,703,361,0,2,1,3,0.0,--,--,--,--,--
Contrast Stuff,2022_Oct_14_1141,100,1200,1920,49,3,3,False,53,female,Bea,fr,704,361,0,2,1,3,0.0,--,--,--,--,--
Contrast Stuff,2022_Oct_14_1141,100,1200,1920,49,3,3,False,53,female,Bea,fr,705,361,0,1,1,3,0.0,--,--,--,--,--
Contrast Stuff,2022_Oct_14_1141,100,1200,1920,49,3,3,False,53,female,Bea,fr,706,361,0,1,0,3,0.0,--,--,--,--,--
Contrast Stuff,2022_Oct_14_1141,100,1200,1920,49,3,3,False,53,female,Bea,fr,707,361,0,2,1,3,0.0,--,--,--,--,--
Contrast Stuff,2022_Oct_14_1141,100,1200,1920,49,3,3,False,53,female,Bea,fr,708,361,0,2,0,3,0.0,--,--,--,--,--
Contrast Stuff,2022_Oct_14_1141,100,1200,1920,49,3,3,False,53,female,Bea,fr,709,361,0,1,1,3,0.0,--,--,--,--,--
Contrast Stuff,2022_Oct_14_1141,100,1200,1920,49,3,3,False,53,female,Bea,fr,710,361,0,2,0,3,0.0,--,--,--,--,--
Contrast Stuff,2022_Oct_14_1141,100,1200,1920,49,3,3,False,53,female,Bea,fr,711,361,0,1,1,3,0.0,--,--,--,--,--
Contrast Stuff,2022_Oct_14_1141,100,1200,1920,49,3,3,False,53,female,Bea,fr,712,361,0,2,1,3,0.0,--,--,--,--,--
Contrast Stuff,2022_Oct_14_1141,100,1200,1920,49,3,3,False,53,female,Bea,fr,713,361,0,1,1,3,0.0,--,--,--,--,--
Contrast Stuff,2022_Oct_14_1141,100,1200,1920,49,3,3,False,53,female,Bea,fr,714,361,0,1,1,3,0.0,--,--,--,--,--
Contrast Stuff,2022_Oct_14_1141,100,1200,1920,49,3,3,False,53,female,Bea,fr,715,361,0,1,0,3,0.0,--,--,--,--,--
Contrast Stuff,2022_Oct_14_1141,100,1200,1920,49,3,3,False,53,female,Bea,fr,716,361,0,1,1,3,0.0,--,--,--,--,--
Contrast Stuff,2022_Oct_14_1141,100,1200,1920,49,3,3,False,53,female,Bea,fr,717,361,0,2,1,3,0.0,--,--,--,--,--
Contrast Stuff,2022_Oct_14_1141,100,1200,1920,49,3,3,False,53,female,Bea,fr,718,361,0,1,1,3,0.0,--,--,--,--,--
Contrast Stuff,2022_Oct_14_1141,100,1200,1920,49,3,3,False,53,female,Bea,fr,719,361,0,2,1,3,0.0,--,--,--,--,--
Contrast Stuff,2022_Oct_14_1141,100,1200,1920,49,3,3,False,53,female,Bea,fr,720,361,0,1,0,3,0.0,--,--,--,--,--
