exp_name,date,refreshrate(hz),screenresolutionvert(pixels),screenresolutionhori(pixels),screenwidth(cm),eccentricity,Stim_size,left-handed,age,gender,participant,language,TrialNumber,bgori,temp,staircase,targetloc,cond,ran,order,resp,rt,acc,contrast
Contrast Stuff,2022_Oct_14_1127,100,1200,1920,49,2,1.5,False,53,female,Bea,fr,1,361,0,1,0,3,1.0,0.0,0.0,0.9588436,1.0,0.011410550312757525
Contrast Stuff,2022_Oct_14_1127,100,1200,1920,49,2,1.5,False,53,female,Bea,fr,2,361,0,1,0,3,1.0,1.0,0.0,0.8350192,1.0,0.006956757690467928
Contrast Stuff,2022_Oct_14_1127,100,1200,1920,49,2,1.5,False,53,female,Bea,fr,3,361,0,2,1,3,1.0,2.0,0.0,0.9126826,0.0,0.011410550312757525
Contrast Stuff,2022_Oct_14_1127,100,1200,1920,49,2,1.5,False,53,female,Bea,fr,4,361,0,1,0,3,1.0,3.0,0.0,0.8051728,1.0,0.004682600487639664
Contrast Stuff,2022_Oct_14_1127,100,1200,1920,49,2,1.5,False,53,female,Bea,fr,5,361,0,1,0,3,1.0,4.0,0.0,0.8396811,1.0,0.0034115464546677645
Contrast Stuff,2022_Oct_14_1127,100,1200,1920,49,2,1.5,False,53,female,Bea,fr,6,361,0,2,0,3,1.0,5.0,0.0,0.7235835,1.0,0.03193728503137525
Contrast Stuff,2022_Oct_14_1127,100,1200,1920,49,2,1.5,False,53,female,Bea,fr,7,361,0,1,1,3,1.0,6.0,0.0,0.9833988,0.0,0.002690292041773133
Contrast Stuff,2022_Oct_14_1127,100,1200,1920,49,2,1.5,False,53,female,Bea,fr,8,361,0,2,1,3,1.0,7.0,1.0,0.5230379,1.0,0.025185242205390552
Contrast Stuff,2022_Oct_14_1127,100,1200,1920,49,2,1.5,False,53,female,Bea,fr,9,361,0,1,1,3,1.0,8.0,0.0,0.7460379,0.0,0.0052730639366930995
Contrast Stuff,2022_Oct_14_1127,100,1200,1920,49,2,1.5,False,53,female,Bea,fr,10,361,0,1,0,3,1.0,9.0,0.0,0.7813856,1.0,0.013106251877668104
Contrast Stuff,2022_Oct_14_1127,100,1200,1920,49,2,1.5,False,53,female,Bea,fr,11,361,0,1,1,3,1.0,10.0,1.0,0.7509969,1.0,0.009361527229880708
Contrast Stuff,2022_Oct_14_1127,100,1200,1920,49,2,1.5,False,53,female,Bea,fr,12,361,0,1,1,3,1.0,11.0,1.0,0.8490487,1.0,0.007833986305419286
Contrast Stuff,2022_Oct_14_1127,100,1200,1920,49,2,1.5,False,53,female,Bea,fr,13,361,0,2,0,3,1.0,12.0,0.0,0.6121022,1.0,0.020662660803773863
Contrast Stuff,2022_Oct_14_1127,100,1200,1920,49,2,1.5,False,53,female,Bea,fr,14,361,0,1,0,3,1.0,13.0,1.0,1.0070877,0.0,0.006956757690467928
Contrast Stuff,2022_Oct_14_1127,100,1200,1920,49,2,1.5,False,53,female,Bea,fr,15,361,0,1,1,3,1.0,14.0,1.0,0.7981621,1.0,0.011186921786571522
Contrast Stuff,2022_Oct_14_1127,100,1200,1920,49,2,1.5,False,53,female,Bea,fr,16,361,0,2,1,3,1.0,15.0,1.0,0.6168006,1.0,0.017636741035637882
Contrast Stuff,2022_Oct_14_1127,100,1200,1920,49,2,1.5,False,53,female,Bea,fr,17,361,0,1,1,3,1.0,16.0,0.0,0.9016943,0.0,0.009361527229880708
Contrast Stuff,2022_Oct_14_1127,100,1200,1920,49,2,1.5,False,53,female,Bea,fr,18,361,0,1,1,3,1.0,17.0,1.0,0.6265482,1.0,0.01566182643816842
Contrast Stuff,2022_Oct_14_1127,100,1200,1920,49,2,1.5,False,53,female,Bea,fr,19,361,0,1,0,3,1.0,18.0,0.0,0.956066,1.0,0.013635481770871715
Contrast Stuff,2022_Oct_14_1127,100,1200,1920,49,2,1.5,False,53,female,Bea,fr,20,361,0,1,0,3,1.0,19.0,1.0,1.5609763,0.0,0.011871307848915111
Contrast Stuff,2022_Oct_14_1127,100,1200,1920,49,2,1.5,False,53,female,Bea,fr,21,361,0,1,1,3,1.0,20.0,1.0,0.6122845,1.0,0.018715709851209905
Contrast Stuff,2022_Oct_14_1127,100,1200,1920,49,2,1.5,False,53,female,Bea,fr,22,361,0,1,1,3,1.0,21.0,1.0,0.5661876,1.0,0.01629425032339594
Contrast Stuff,2022_Oct_14_1127,100,1200,1920,49,2,1.5,False,53,female,Bea,fr,23,361,0,1,1,3,1.0,22.0,1.0,0.5389482,1.0,0.014469664207771075
Contrast Stuff,2022_Oct_14_1127,100,1200,1920,49,2,1.5,False,53,female,Bea,fr,24,361,0,2,1,3,1.0,23.0,1.0,0.4747367,1.0,0.015053948632856707
Contrast Stuff,2022_Oct_14_1127,100,1200,1920,49,2,1.5,False,53,female,Bea,fr,25,361,0,1,0,3,1.0,24.0,1.0,0.7642125,0.0,0.012849390314387626
Contrast Stuff,2022_Oct_14_1127,100,1200,1920,49,2,1.5,False,53,female,Bea,fr,26,361,0,1,0,3,1.0,25.0,0.0,0.5490778,1.0,0.017636741035637882
Contrast Stuff,2022_Oct_14_1127,100,1200,1920,49,2,1.5,False,53,female,Bea,fr,27,361,0,2,0,3,1.0,26.0,0.0,0.7623253,1.0,0.009934240517826544
Contrast Stuff,2022_Oct_14_1127,100,1200,1920,49,2,1.5,False,53,female,Bea,fr,28,361,0,2,0,3,1.0,27.0,0.0,1.3072144,1.0,0.00882183111215549
Contrast Stuff,2022_Oct_14_1127,100,1200,1920,49,2,1.5,False,53,female,Bea,fr,29,361,0,2,0,3,1.0,28.0,1.0,0.556889,0.0,0.007237671270027853
Contrast Stuff,2022_Oct_14_1127,100,1200,1920,49,2,1.5,False,53,female,Bea,fr,30,361,0,2,0,3,1.0,29.0,0.0,0.6612517,1.0,0.014469664207771075
Contrast Stuff,2022_Oct_14_1127,100,1200,1920,49,2,1.5,False,53,female,Bea,fr,31,361,0,2,1,3,1.0,30.0,1.0,0.9322662,1.0,0.012849390314387626
Contrast Stuff,2022_Oct_14_1127,100,1200,1920,49,2,1.5,False,53,female,Bea,fr,32,361,0,1,0,3,1.0,31.0,0.0,0.5385928,1.0,0.015974909092232634
Contrast Stuff,2022_Oct_14_1127,100,1200,1920,49,2,1.5,False,53,female,Bea,fr,33,361,0,1,1,3,1.0,32.0,1.0,1.0841479,1.0,0.014758915330012263
Contrast Stuff,2022_Oct_14_1127,100,1200,1920,49,2,1.5,False,53,female,Bea,fr,34,361,0,2,1,3,1.0,33.0,1.0,0.5940576,1.0,0.010541990878478093
Contrast Stuff,2022_Oct_14_1127,100,1200,1920,49,2,1.5,False,53,female,Bea,fr,35,361,0,2,0,3,1.0,34.0,1.0,0.8748622,0.0,0.009934240517826544
Contrast Stuff,2022_Oct_14_1127,100,1200,1920,49,2,1.5,False,53,female,Bea,fr,36,361,0,2,0,3,1.0,35.0,0.0,0.6742575,1.0,0.013908057440071123
Contrast Stuff,2022_Oct_14_1127,100,1200,1920,49,2,1.5,False,53,female,Bea,fr,37,361,0,2,0,3,1.0,36.0,0.0,0.5818976,1.0,0.013106251877668104
Contrast Stuff,2022_Oct_14_1127,100,1200,1920,49,2,1.5,False,53,female,Bea,fr,38,361,0,1,0,3,1.0,37.0,0.0,0.5925338,1.0,0.013908057440071123
Contrast Stuff,2022_Oct_14_1127,100,1200,1920,49,2,1.5,False,53,female,Bea,fr,39,361,0,2,1,3,1.0,38.0,1.0,0.5753128,1.0,0.012350670754779419
Contrast Stuff,2022_Oct_14_1127,100,1200,1920,49,2,1.5,False,53,female,Bea,fr,40,361,0,2,1,3,1.0,39.0,1.0,0.581155,1.0,0.011410550312757525
Contrast Stuff,2022_Oct_14_1127,100,1200,1920,49,2,1.5,False,53,female,Bea,fr,41,361,0,2,0,3,1.0,40.0,0.0,0.6785471,1.0,0.010541990878478093
Contrast Stuff,2022_Oct_14_1127,100,1200,1920,49,2,1.5,False,53,female,Bea,fr,42,361,0,2,0,3,1.0,41.0,0.0,0.8197964,1.0,0.009934240517826544
Contrast Stuff,2022_Oct_14_1127,100,1200,1920,49,2,1.5,False,53,female,Bea,fr,43,361,0,2,0,3,1.0,42.0,1.0,0.690643,0.0,0.009178056277132024
Contrast Stuff,2022_Oct_14_1127,100,1200,1920,49,2,1.5,False,53,female,Bea,fr,44,361,0,1,1,3,1.0,43.0,1.0,0.5541175,1.0,0.012849390314387626
Contrast Stuff,2022_Oct_14_1127,100,1200,1920,49,2,1.5,False,53,female,Bea,fr,45,361,0,1,1,3,1.0,44.0,1.0,0.7207229,1.0,0.011871307848915111
Contrast Stuff,2022_Oct_14_1127,100,1200,1920,49,2,1.5,False,53,female,Bea,fr,46,361,0,2,0,3,1.0,45.0,0.0,0.8928521,1.0,0.011410550312757525
Contrast Stuff,2022_Oct_14_1127,100,1200,1920,49,2,1.5,False,53,female,Bea,fr,47,361,0,2,1,3,1.0,46.0,1.0,0.6358538,1.0,0.011186921786571522
Contrast Stuff,2022_Oct_14_1127,100,1200,1920,49,2,1.5,False,53,female,Bea,fr,48,361,0,2,0,3,1.0,47.0,1.0,1.0373569,0.0,0.010752727122835341
Contrast Stuff,2022_Oct_14_1127,100,1200,1920,49,2,1.5,False,53,female,Bea,fr,49,361,0,2,1,3,1.0,48.0,1.0,0.8125844,1.0,0.0121086173723749
Contrast Stuff,2022_Oct_14_1127,100,1200,1920,49,2,1.5,False,53,female,Bea,fr,50,361,0,1,1,3,1.0,49.0,1.0,0.58496,1.0,0.011410550312757525
Contrast Stuff,2022_Oct_14_1127,100,1200,1920,49,2,1.5,False,53,female,Bea,fr,51,361,0,2,1,3,1.0,50.0,1.0,0.4390404,1.0,0.011871307848915111
Contrast Stuff,2022_Oct_14_1127,100,1200,1920,49,2,1.5,False,53,female,Bea,fr,52,361,0,1,0,3,1.0,51.0,1.0,0.6930068,0.0,0.011186921786571522
Contrast Stuff,2022_Oct_14_1127,100,1200,1920,49,2,1.5,False,53,female,Bea,fr,53,361,0,1,1,3,1.0,52.0,1.0,0.5507902,1.0,0.013368248148594363
Contrast Stuff,2022_Oct_14_1127,100,1200,1920,49,2,1.5,False,53,female,Bea,fr,54,361,0,1,1,3,1.0,53.0,1.0,0.4611747,1.0,0.012849390314387626
Contrast Stuff,2022_Oct_14_1127,100,1200,1920,49,2,1.5,False,53,female,Bea,fr,55,361,0,1,0,3,1.0,54.0,0.0,0.7203161,1.0,0.012350670754779419
Contrast Stuff,2022_Oct_14_1127,100,1200,1920,49,2,1.5,False,53,female,Bea,fr,56,361,0,2,1,3,1.0,55.0,1.0,0.93858,1.0,0.011638649212356182
Contrast Stuff,2022_Oct_14_1127,100,1200,1920,49,2,1.5,False,53,female,Bea,fr,57,361,0,1,0,3,1.0,56.0,0.0,1.018515,1.0,0.011871307848915111
Contrast Stuff,2022_Oct_14_1127,100,1200,1920,49,2,1.5,False,53,female,Bea,fr,58,361,0,1,1,3,1.0,57.0,1.0,0.6573951,1.0,0.011410550312757525
Contrast Stuff,2022_Oct_14_1127,100,1200,1920,49,2,1.5,False,53,female,Bea,fr,59,361,0,1,1,3,1.0,58.0,1.0,0.8520918,1.0,0.011186921786571522
Contrast Stuff,2022_Oct_14_1127,100,1200,1920,49,2,1.5,False,53,female,Bea,fr,60,361,0,1,1,3,1.0,59.0,1.0,0.6179739,1.0,0.010752727122835341
Contrast Stuff,2022_Oct_14_1127,100,1200,1920,49,2,1.5,False,53,female,Bea,fr,61,361,0,2,1,3,1.0,60.0,1.0,0.441684,1.0,0.011410550312757525
Contrast Stuff,2022_Oct_14_1127,100,1200,1920,49,2,1.5,False,53,female,Bea,fr,62,361,0,2,1,3,1.0,61.0,1.0,0.5141224,1.0,0.010967676021633076
Contrast Stuff,2022_Oct_14_1127,100,1200,1920,49,2,1.5,False,53,female,Bea,fr,63,361,0,2,1,3,1.0,62.0,1.0,0.5205557,1.0,0.010752727122835341
Contrast Stuff,2022_Oct_14_1127,100,1200,1920,49,2,1.5,False,53,female,Bea,fr,64,361,0,2,1,3,1.0,63.0,1.0,0.5477675,1.0,0.010541990878478093
Contrast Stuff,2022_Oct_14_1127,100,1200,1920,49,2,1.5,False,53,female,Bea,fr,65,361,0,2,0,3,1.0,64.0,0.0,1.0366747,1.0,0.010132827726011519
Contrast Stuff,2022_Oct_14_1127,100,1200,1920,49,2,1.5,False,53,female,Bea,fr,66,361,0,2,0,3,1.0,65.0,0.0,0.8192184,1.0,0.009934240517826544
Contrast Stuff,2022_Oct_14_1127,100,1200,1920,49,2,1.5,False,53,female,Bea,fr,67,361,0,1,0,3,1.0,66.0,1.0,1.2804394,0.0,0.010541990878478093
Contrast Stuff,2022_Oct_14_1127,100,1200,1920,49,2,1.5,False,53,female,Bea,fr,68,361,0,2,0,3,1.0,67.0,0.0,0.5743552,1.0,0.009548665799114418
Contrast Stuff,2022_Oct_14_1127,100,1200,1920,49,2,1.5,False,53,female,Bea,fr,69,361,0,2,0,3,1.0,68.0,1.0,0.9172913,0.0,0.00899818106145444
Contrast Stuff,2022_Oct_14_1127,100,1200,1920,49,2,1.5,False,53,female,Bea,fr,70,361,0,1,0,3,1.0,69.0,1.0,0.6183484,0.0,0.011871307848915111
Contrast Stuff,2022_Oct_14_1127,100,1200,1920,49,2,1.5,False,53,female,Bea,fr,71,361,0,2,1,3,1.0,70.0,0.0,0.5944017,0.0,0.010541990878478093
Contrast Stuff,2022_Oct_14_1127,100,1200,1920,49,2,1.5,False,53,female,Bea,fr,72,361,0,2,0,3,1.0,71.0,1.0,1.9417967,0.0,0.011186921786571522
Contrast Stuff,2022_Oct_14_1127,100,1200,1920,49,2,1.5,False,53,female,Bea,fr,73,361,0,1,1,3,1.0,72.0,1.0,0.7377798,1.0,0.013106251877668104
Contrast Stuff,2022_Oct_14_1127,100,1200,1920,49,2,1.5,False,53,female,Bea,fr,74,361,0,1,0,3,1.0,73.0,1.0,0.9706985,0.0,0.012849390314387626
Contrast Stuff,2022_Oct_14_1127,100,1200,1920,49,2,1.5,False,53,female,Bea,fr,75,361,0,2,1,3,1.0,74.0,1.0,0.6923695,1.0,0.011871307848915111
Contrast Stuff,2022_Oct_14_1127,100,1200,1920,49,2,1.5,False,53,female,Bea,fr,76,361,0,2,1,3,1.0,75.0,0.0,0.6843262,0.0,0.011871307848915111
Contrast Stuff,2022_Oct_14_1127,100,1200,1920,49,2,1.5,False,53,female,Bea,fr,77,361,0,1,0,3,1.0,76.0,0.0,0.8166823,1.0,0.013908057440071123
Contrast Stuff,2022_Oct_14_1127,100,1200,1920,49,2,1.5,False,53,female,Bea,fr,78,361,0,1,0,3,1.0,77.0,0.0,1.0579048,1.0,0.013635481770871715
Contrast Stuff,2022_Oct_14_1127,100,1200,1920,49,2,1.5,False,53,female,Bea,fr,79,361,0,2,0,3,1.0,78.0,0.0,0.6625861,1.0,0.012597562826699979
Contrast Stuff,2022_Oct_14_1127,100,1200,1920,49,2,1.5,False,53,female,Bea,fr,80,361,0,2,1,3,1.0,79.0,1.0,2.0282092,1.0,0.012350670754779419
Contrast Stuff,2022_Oct_14_1127,100,1200,1920,49,2,1.5,False,53,female,Bea,fr,81,90,0,2,0,1,1.0,80.0,0.0,4.8507786,1.0,0.06016856135202387
Contrast Stuff,2022_Oct_14_1127,100,1200,1920,49,2,1.5,False,53,female,Bea,fr,82,90,0,1,1,1,1.0,81.0,1.0,2.7562418,1.0,0.06016856135202387
Contrast Stuff,2022_Oct_14_1127,100,1200,1920,49,2,1.5,False,53,female,Bea,fr,83,90,0,1,0,1,1.0,82.0,1.0,0.7479289,0.0,0.02950625151774548
Contrast Stuff,2022_Oct_14_1127,100,1200,1920,49,2,1.5,False,53,female,Bea,fr,84,90,0,1,0,1,1.0,83.0,1.0,0.8783672,0.0,0.11335515124769421
Contrast Stuff,2022_Oct_14_1127,100,1200,1920,49,2,1.5,False,53,female,Bea,fr,85,90,0,2,0,1,1.0,84.0,0.0,0.5247389,1.0,0.02950625151774548
Contrast Stuff,2022_Oct_14_1127,100,1200,1920,49,2,1.5,False,53,female,Bea,fr,86,90,0,1,0,1,1.0,85.0,1.0,0.8759699,0.0,0.2357723306969045
Contrast Stuff,2022_Oct_14_1127,100,1200,1920,49,2,1.5,False,53,female,Bea,fr,87,90,0,1,0,1,1.0,86.0,0.0,0.2527942,1.0,0.3434129109865918
Contrast Stuff,2022_Oct_14_1127,100,1200,1920,49,2,1.5,False,53,female,Bea,fr,88,90,0,2,1,1,1.0,87.0,1.0,4.883011,1.0,0.01566182643816842
Contrast Stuff,2022_Oct_14_1127,100,1200,1920,49,2,1.5,False,53,female,Bea,fr,89,90,0,2,1,1,1.0,88.0,0.0,0.8632264,0.0,0.00899818106145444
Contrast Stuff,2022_Oct_14_1127,100,1200,1920,49,2,1.5,False,53,female,Bea,fr,90,90,0,1,0,1,1.0,89.0,1.0,2.1387675,0.0,0.32361500725945164
Contrast Stuff,2022_Oct_14_1127,100,1200,1920,49,2,1.5,False,53,female,Bea,fr,91,90,0,2,0,1,1.0,90.0,0.0,1.4222089,1.0,0.0325757169537761
Contrast Stuff,2022_Oct_14_1127,100,1200,1920,49,2,1.5,False,53,female,Bea,fr,92,90,0,2,0,1,1.0,91.0,0.0,1.2989451,1.0,0.020662660803773863
Contrast Stuff,2022_Oct_14_1127,100,1200,1920,49,2,1.5,False,53,female,Bea,fr,93,90,0,2,1,1,1.0,92.0,1.0,1.5816405,1.0,0.016952211458201936
Contrast Stuff,2022_Oct_14_1127,100,1200,1920,49,2,1.5,False,53,female,Bea,fr,94,90,0,1,1,1,1.0,93.0,1.0,0.778347,1.0,0.40233195469697436
Contrast Stuff,2022_Oct_14_1127,100,1200,1920,49,2,1.5,False,53,female,Bea,fr,95,90,0,1,0,1,1.0,94.0,0.0,1.039306,1.0,0.38671636435739903
Contrast Stuff,2022_Oct_14_1127,100,1200,1920,49,2,1.5,False,53,female,Bea,fr,96,90,0,1,0,1,1.0,95.0,0.0,0.9462321,1.0,0.3717068572752103
Contrast Stuff,2022_Oct_14_1127,100,1200,1920,49,2,1.5,False,53,female,Bea,fr,97,90,0,1,0,1,1.0,96.0,0.0,0.5511139,1.0,0.3572799097214362
Contrast Stuff,2022_Oct_14_1127,100,1200,1920,49,2,1.5,False,53,female,Bea,fr,98,90,0,2,1,1,1.0,97.0,0.0,0.639464,0.0,0.013635481770871715
Contrast Stuff,2022_Oct_14_1127,100,1200,1920,49,2,1.5,False,53,female,Bea,fr,99,90,0,1,1,1,1.0,98.0,1.0,0.3236761,1.0,0.33008412794392594
Contrast Stuff,2022_Oct_14_1127,100,1200,1920,49,2,1.5,False,53,female,Bea,fr,100,90,0,1,1,1,1.0,99.0,1.0,0.6287475,1.0,0.30495846129566156
Contrast Stuff,2022_Oct_14_1127,100,1200,1920,49,2,1.5,False,53,female,Bea,fr,101,90,0,1,1,1,1.0,100.0,1.0,0.6524983,1.0,0.2931221993567684
Contrast Stuff,2022_Oct_14_1127,100,1200,1920,49,2,1.5,False,53,female,Bea,fr,102,90,0,1,1,1,1.0,101.0,1.0,0.8016451,1.0,0.28737747332359304
Contrast Stuff,2022_Oct_14_1127,100,1200,1920,49,2,1.5,False,53,female,Bea,fr,103,90,0,1,1,1,1.0,102.0,0.0,0.7533302,0.0,0.27622357703508327
Contrast Stuff,2022_Oct_14_1127,100,1200,1920,49,2,1.5,False,53,female,Bea,fr,104,90,0,2,0,1,1.0,103.0,1.0,0.4348721,0.0,0.022812148451009043
Contrast Stuff,2022_Oct_14_1127,100,1200,1920,49,2,1.5,False,53,female,Bea,fr,105,90,0,2,0,1,1.0,104.0,0.0,0.3832839,1.0,0.06259816529949601
Contrast Stuff,2022_Oct_14_1127,100,1200,1920,49,2,1.5,False,53,female,Bea,fr,106,90,0,1,1,1,1.0,105.0,1.0,0.6816993,1.0,0.3172726709880634
Contrast Stuff,2022_Oct_14_1127,100,1200,1920,49,2,1.5,False,53,female,Bea,fr,107,90,0,1,0,1,1.0,106.0,1.0,0.5016983,0.0,0.3110546343581532
Contrast Stuff,2022_Oct_14_1127,100,1200,1920,49,2,1.5,False,53,female,Bea,fr,108,90,0,1,0,1,1.0,107.0,0.0,0.3926581,1.0,0.3502777952346755
Contrast Stuff,2022_Oct_14_1127,100,1200,1920,49,2,1.5,False,53,female,Bea,fr,109,90,0,1,1,1,1.0,108.0,0.0,0.5183978,0.0,0.3434129109865918
Contrast Stuff,2022_Oct_14_1127,100,1200,1920,49,2,1.5,False,53,female,Bea,fr,110,90,0,1,0,1,1.0,109.0,0.0,0.7465175,1.0,0.3791373424660041
Contrast Stuff,2022_Oct_14_1127,100,1200,1920,49,2,1.5,False,53,female,Bea,fr,111,90,0,2,0,1,1.0,110.0,1.0,0.8081725,0.0,0.041309110667654074
Contrast Stuff,2022_Oct_14_1127,100,1200,1920,49,2,1.5,False,53,female,Bea,fr,112,90,0,2,0,1,1.0,111.0,0.0,0.3712393,1.0,0.10472667292353503
Contrast Stuff,2022_Oct_14_1127,100,1200,1920,49,2,1.5,False,53,female,Bea,fr,113,90,0,2,1,1,1.0,112.0,0.0,0.6097945,0.0,0.07938043364074708
Contrast Stuff,2022_Oct_14_1127,100,1200,1920,49,2,1.5,False,53,female,Bea,fr,114,90,0,2,1,1,1.0,113.0,1.0,0.4047854,1.0,0.17177383828087872
Contrast Stuff,2022_Oct_14_1127,100,1200,1920,49,2,1.5,False,53,female,Bea,fr,115,90,0,2,1,1,1.0,114.0,1.0,0.5069942,1.0,0.14092795004371353
Contrast Stuff,2022_Oct_14_1127,100,1200,1920,49,2,1.5,False,53,female,Bea,fr,116,90,0,2,1,1,1.0,115.0,1.0,0.4670432,1.0,0.12028991731550513
Contrast Stuff,2022_Oct_14_1127,100,1200,1920,49,2,1.5,False,53,female,Bea,fr,117,90,0,1,1,1,1.0,116.0,0.0,0.7155198,0.0,0.3717068572752103
Contrast Stuff,2022_Oct_14_1127,100,1200,1920,49,2,1.5,False,53,female,Bea,fr,118,90,0,1,1,1,1.0,117.0,1.0,0.4308552,1.0,0.40233195469697436
Contrast Stuff,2022_Oct_14_1127,100,1200,1920,49,2,1.5,False,53,female,Bea,fr,119,90,0,2,0,1,1.0,118.0,0.0,1.639188,1.0,0.10682017746080334
Contrast Stuff,2022_Oct_14_1127,100,1200,1920,49,2,1.5,False,53,female,Bea,fr,120,90,0,2,1,1,1.0,119.0,1.0,0.6217549,1.0,0.08939009488744021
Contrast Stuff,2022_Oct_14_1127,100,1200,1920,49,2,1.5,False,53,female,Bea,fr,121,90,0,2,1,1,1.0,120.0,1.0,0.66524,1.0,0.07049162720911727
Contrast Stuff,2022_Oct_14_1127,100,1200,1920,49,2,1.5,False,53,female,Bea,fr,122,90,0,2,0,1,1.0,121.0,0.0,0.614983,1.0,0.06642775423169728
Contrast Stuff,2022_Oct_14_1127,100,1200,1920,49,2,1.5,False,53,female,Bea,fr,123,90,0,2,0,1,1.0,122.0,0.0,0.572526,1.0,0.06384951358948564
Contrast Stuff,2022_Oct_14_1127,100,1200,1920,49,2,1.5,False,53,female,Bea,fr,124,90,0,2,0,1,1.0,123.0,1.0,0.8806733,0.0,0.05558859192225047
Contrast Stuff,2022_Oct_14_1127,100,1200,1920,49,2,1.5,False,53,female,Bea,fr,125,90,0,1,1,1,1.0,124.0,1.0,0.7520156,1.0,0.3944468922240608
Contrast Stuff,2022_Oct_14_1127,100,1200,1920,49,2,1.5,False,53,female,Bea,fr,126,90,0,1,0,1,1.0,125.0,0.0,0.5298835,1.0,0.38671636435739903
Contrast Stuff,2022_Oct_14_1127,100,1200,1920,49,2,1.5,False,53,female,Bea,fr,127,90,0,1,1,1,1.0,126.0,1.0,0.4297868,1.0,0.3791373424660041
Contrast Stuff,2022_Oct_14_1127,100,1200,1920,49,2,1.5,False,53,female,Bea,fr,128,90,0,2,1,1,1.0,127.0,1.0,0.8721899,1.0,0.07333807611669522
Contrast Stuff,2022_Oct_14_1127,100,1200,1920,49,2,1.5,False,53,female,Bea,fr,129,90,0,2,0,1,1.0,128.0,1.0,0.7909317,0.0,0.07049162720911727
Contrast Stuff,2022_Oct_14_1127,100,1200,1920,49,2,1.5,False,53,female,Bea,fr,130,90,0,1,1,1,1.0,129.0,1.0,0.8023184,1.0,0.3717068572752103
Contrast Stuff,2022_Oct_14_1127,100,1200,1920,49,2,1.5,False,53,female,Bea,fr,131,90,0,1,1,1,1.0,130.0,1.0,0.7628256,1.0,0.3644219977033851
Contrast Stuff,2022_Oct_14_1127,100,1200,1920,49,2,1.5,False,53,female,Bea,fr,132,90,0,1,1,1,1.0,131.0,1.0,0.8231671,1.0,0.3572799097214362
Contrast Stuff,2022_Oct_14_1127,100,1200,1920,49,2,1.5,False,53,female,Bea,fr,133,90,0,2,0,1,1.0,132.0,0.0,1.1086917,1.0,0.09485874267274703
Contrast Stuff,2022_Oct_14_1127,100,1200,1920,49,2,1.5,False,53,female,Bea,fr,134,90,0,2,1,1,1.0,133.0,0.0,0.8554575,0.0,0.08939009488744021
Contrast Stuff,2022_Oct_14_1127,100,1200,1920,49,2,1.5,False,53,female,Bea,fr,135,90,0,2,0,1,1.0,134.0,0.0,0.5990169,1.0,0.11335515124769421
Contrast Stuff,2022_Oct_14_1127,100,1200,1920,49,2,1.5,False,53,female,Bea,fr,136,90,0,1,0,1,1.0,135.0,0.0,0.5819742,1.0,0.3502777952346755
Contrast Stuff,2022_Oct_14_1127,100,1200,1920,49,2,1.5,False,53,female,Bea,fr,137,90,0,2,1,1,1.0,136.0,0.0,0.530676,0.0,0.10682017746080334
Contrast Stuff,2022_Oct_14_1127,100,1200,1920,49,2,1.5,False,53,female,Bea,fr,138,90,0,1,0,1,1.0,137.0,0.0,0.542614,1.0,0.3434129109865918
Contrast Stuff,2022_Oct_14_1127,100,1200,1920,49,2,1.5,False,53,female,Bea,fr,139,90,0,1,1,1,1.0,138.0,1.0,1.1364527,1.0,0.3366825674841127
Contrast Stuff,2022_Oct_14_1127,100,1200,1920,49,2,1.5,False,53,female,Bea,fr,140,90,0,1,1,1,1.0,139.0,1.0,0.6642065,1.0,0.3366825674841127
Contrast Stuff,2022_Oct_14_1127,100,1200,1920,49,2,1.5,False,53,female,Bea,fr,141,90,0,2,1,1,1.0,140.0,0.0,0.604814,0.0,0.13816598774541355
Contrast Stuff,2022_Oct_14_1127,100,1200,1920,49,2,1.5,False,53,female,Bea,fr,142,90,0,1,0,1,1.0,141.0,0.0,0.7127827,1.0,0.33008412794392594
Contrast Stuff,2022_Oct_14_1127,100,1200,1920,49,2,1.5,False,53,female,Bea,fr,143,90,0,2,1,1,1.0,142.0,0.0,0.6927968,0.0,0.20124492094022123
Contrast Stuff,2022_Oct_14_1127,100,1200,1920,49,2,1.5,False,53,female,Bea,fr,144,90,0,1,0,1,1.0,143.0,1.0,1.0253327,0.0,0.32361500725945164
Contrast Stuff,2022_Oct_14_1127,100,1200,1920,49,2,1.5,False,53,female,Bea,fr,145,90,0,2,1,1,1.0,144.0,1.0,0.7387944,1.0,0.2989817634696808
Contrast Stuff,2022_Oct_14_1127,100,1200,1920,49,2,1.5,False,53,female,Bea,fr,146,90,0,2,0,1,1.0,145.0,1.0,0.8279391,0.0,0.27622357703508327
Contrast Stuff,2022_Oct_14_1127,100,1200,1920,49,2,1.5,False,53,female,Bea,fr,147,90,0,2,0,1,1.0,146.0,0.0,0.8168324,1.0,0.3572799097214362
Contrast Stuff,2022_Oct_14_1127,100,1200,1920,49,2,1.5,False,53,female,Bea,fr,148,90,0,2,1,1,1.0,147.0,1.0,0.7292658,1.0,0.3434129109865918
Contrast Stuff,2022_Oct_14_1127,100,1200,1920,49,2,1.5,False,53,female,Bea,fr,149,90,0,1,1,1,1.0,148.0,1.0,0.7267872,1.0,0.3502777952346755
Contrast Stuff,2022_Oct_14_1127,100,1200,1920,49,2,1.5,False,53,female,Bea,fr,150,90,0,1,0,1,1.0,149.0,0.0,0.4622792,1.0,0.3434129109865918
Contrast Stuff,2022_Oct_14_1127,100,1200,1920,49,2,1.5,False,53,female,Bea,fr,151,90,0,2,0,1,1.0,150.0,0.0,0.7949647,1.0,0.32361500725945164
Contrast Stuff,2022_Oct_14_1127,100,1200,1920,49,2,1.5,False,53,female,Bea,fr,152,90,0,1,0,1,1.0,151.0,0.0,0.6239728,1.0,0.3434129109865918
Contrast Stuff,2022_Oct_14_1127,100,1200,1920,49,2,1.5,False,53,female,Bea,fr,153,90,0,2,1,1,1.0,152.0,1.0,1.2156106,1.0,0.30495846129566156
Contrast Stuff,2022_Oct_14_1127,100,1200,1920,49,2,1.5,False,53,female,Bea,fr,154,90,0,1,0,1,1.0,153.0,0.0,0.580038,1.0,0.3366825674841127
Contrast Stuff,2022_Oct_14_1127,100,1200,1920,49,2,1.5,False,53,female,Bea,fr,155,90,0,1,1,1,1.0,154.0,1.0,0.578317,1.0,0.3366825674841127
Contrast Stuff,2022_Oct_14_1127,100,1200,1920,49,2,1.5,False,53,female,Bea,fr,156,90,0,1,0,1,1.0,155.0,0.0,0.5408614,1.0,0.32361500725945164
Contrast Stuff,2022_Oct_14_1127,100,1200,1920,49,2,1.5,False,53,female,Bea,fr,157,90,0,2,0,1,1.0,156.0,0.0,0.6977257,1.0,0.2708100369570805
Contrast Stuff,2022_Oct_14_1127,100,1200,1920,49,2,1.5,False,53,female,Bea,fr,158,90,0,2,1,1,1.0,157.0,1.0,0.7457636,1.0,0.25519772050509687
Contrast Stuff,2022_Oct_14_1127,100,1200,1920,49,2,1.5,False,53,female,Bea,fr,159,90,0,2,0,1,1.0,158.0,0.0,0.5897814,1.0,0.24529280737931128
Contrast Stuff,2022_Oct_14_1127,100,1200,1920,49,2,1.5,False,53,female,Bea,fr,160,90,0,2,1,1,1.0,159.0,1.0,1.6826864,1.0,0.2357723306969045
Contrast Stuff,2022_Oct_14_1127,100,1200,1920,49,2,1.5,False,53,female,Bea,fr,161,0,0,2,0,2,1.0,160.0,--,--,--,--
Contrast Stuff,2022_Oct_14_1127,100,1200,1920,49,2,1.5,False,53,female,Bea,fr,162,0,0,2,1,2,0.0,--,--,--,--,--
Contrast Stuff,2022_Oct_14_1127,100,1200,1920,49,2,1.5,False,53,female,Bea,fr,163,0,0,2,0,2,0.0,--,--,--,--,--
Contrast Stuff,2022_Oct_14_1127,100,1200,1920,49,2,1.5,False,53,female,Bea,fr,164,0,0,1,0,2,0.0,--,--,--,--,--
Contrast Stuff,2022_Oct_14_1127,100,1200,1920,49,2,1.5,False,53,female,Bea,fr,165,0,0,1,0,2,0.0,--,--,--,--,--
Contrast Stuff,2022_Oct_14_1127,100,1200,1920,49,2,1.5,False,53,female,Bea,fr,166,0,0,1,1,2,0.0,--,--,--,--,--
Contrast Stuff,2022_Oct_14_1127,100,1200,1920,49,2,1.5,False,53,female,Bea,fr,167,0,0,1,1,2,0.0,--,--,--,--,--
Contrast Stuff,2022_Oct_14_1127,100,1200,1920,49,2,1.5,False,53,female,Bea,fr,168,0,0,1,0,2,0.0,--,--,--,--,--
Contrast Stuff,2022_Oct_14_1127,100,1200,1920,49,2,1.5,False,53,female,Bea,fr,169,0,0,1,1,2,0.0,--,--,--,--,--
Contrast Stuff,2022_Oct_14_1127,100,1200,1920,49,2,1.5,False,53,female,Bea,fr,170,0,0,2,1,2,0.0,--,--,--,--,--
Contrast Stuff,2022_Oct_14_1127,100,1200,1920,49,2,1.5,False,53,female,Bea,fr,171,0,0,1,0,2,0.0,--,--,--,--,--
Contrast Stuff,2022_Oct_14_1127,100,1200,1920,49,2,1.5,False,53,female,Bea,fr,172,0,0,1,0,2,0.0,--,--,--,--,--
Contrast Stuff,2022_Oct_14_1127,100,1200,1920,49,2,1.5,False,53,female,Bea,fr,173,0,0,2,0,2,0.0,--,--,--,--,--
Contrast Stuff,2022_Oct_14_1127,100,1200,1920,49,2,1.5,False,53,female,Bea,fr,174,0,0,2,0,2,0.0,--,--,--,--,--
Contrast Stuff,2022_Oct_14_1127,100,1200,1920,49,2,1.5,False,53,female,Bea,fr,175,0,0,1,1,2,0.0,--,--,--,--,--
Contrast Stuff,2022_Oct_14_1127,100,1200,1920,49,2,1.5,False,53,female,Bea,fr,176,0,0,1,1,2,0.0,--,--,--,--,--
Contrast Stuff,2022_Oct_14_1127,100,1200,1920,49,2,1.5,False,53,female,Bea,fr,177,0,0,1,0,2,0.0,--,--,--,--,--
Contrast Stuff,2022_Oct_14_1127,100,1200,1920,49,2,1.5,False,53,female,Bea,fr,178,0,0,1,0,2,0.0,--,--,--,--,--
Contrast Stuff,2022_Oct_14_1127,100,1200,1920,49,2,1.5,False,53,female,Bea,fr,179,0,0,2,0,2,0.0,--,--,--,--,--
Contrast Stuff,2022_Oct_14_1127,100,1200,1920,49,2,1.5,False,53,female,Bea,fr,180,0,0,1,0,2,0.0,--,--,--,--,--
Contrast Stuff,2022_Oct_14_1127,100,1200,1920,49,2,1.5,False,53,female,Bea,fr,181,0,0,1,1,2,0.0,--,--,--,--,--
Contrast Stuff,2022_Oct_14_1127,100,1200,1920,49,2,1.5,False,53,female,Bea,fr,182,0,0,2,1,2,0.0,--,--,--,--,--
Contrast Stuff,2022_Oct_14_1127,100,1200,1920,49,2,1.5,False,53,female,Bea,fr,183,0,0,2,1,2,0.0,--,--,--,--,--
Contrast Stuff,2022_Oct_14_1127,100,1200,1920,49,2,1.5,False,53,female,Bea,fr,184,0,0,2,1,2,0.0,--,--,--,--,--
Contrast Stuff,2022_Oct_14_1127,100,1200,1920,49,2,1.5,False,53,female,Bea,fr,185,0,0,2,0,2,0.0,--,--,--,--,--
Contrast Stuff,2022_Oct_14_1127,100,1200,1920,49,2,1.5,False,53,female,Bea,fr,186,0,0,2,1,2,0.0,--,--,--,--,--
Contrast Stuff,2022_Oct_14_1127,100,1200,1920,49,2,1.5,False,53,female,Bea,fr,187,0,0,2,1,2,0.0,--,--,--,--,--
Contrast Stuff,2022_Oct_14_1127,100,1200,1920,49,2,1.5,False,53,female,Bea,fr,188,0,0,2,0,2,0.0,--,--,--,--,--
Contrast Stuff,2022_Oct_14_1127,100,1200,1920,49,2,1.5,False,53,female,Bea,fr,189,0,0,2,1,2,0.0,--,--,--,--,--
Contrast Stuff,2022_Oct_14_1127,100,1200,1920,49,2,1.5,False,53,female,Bea,fr,190,0,0,1,1,2,0.0,--,--,--,--,--
Contrast Stuff,2022_Oct_14_1127,100,1200,1920,49,2,1.5,False,53,female,Bea,fr,191,0,0,2,1,2,0.0,--,--,--,--,--
Contrast Stuff,2022_Oct_14_1127,100,1200,1920,49,2,1.5,False,53,female,Bea,fr,192,0,0,1,0,2,0.0,--,--,--,--,--
Contrast Stuff,2022_Oct_14_1127,100,1200,1920,49,2,1.5,False,53,female,Bea,fr,193,0,0,1,0,2,0.0,--,--,--,--,--
Contrast Stuff,2022_Oct_14_1127,100,1200,1920,49,2,1.5,False,53,female,Bea,fr,194,0,0,1,1,2,0.0,--,--,--,--,--
Contrast Stuff,2022_Oct_14_1127,100,1200,1920,49,2,1.5,False,53,female,Bea,fr,195,0,0,2,1,2,0.0,--,--,--,--,--
Contrast Stuff,2022_Oct_14_1127,100,1200,1920,49,2,1.5,False,53,female,Bea,fr,196,0,0,1,0,2,0.0,--,--,--,--,--
Contrast Stuff,2022_Oct_14_1127,100,1200,1920,49,2,1.5,False,53,female,Bea,fr,197,0,0,2,0,2,0.0,--,--,--,--,--
Contrast Stuff,2022_Oct_14_1127,100,1200,1920,49,2,1.5,False,53,female,Bea,fr,198,0,0,2,1,2,0.0,--,--,--,--,--
Contrast Stuff,2022_Oct_14_1127,100,1200,1920,49,2,1.5,False,53,female,Bea,fr,199,0,0,1,1,2,0.0,--,--,--,--,--
Contrast Stuff,2022_Oct_14_1127,100,1200,1920,49,2,1.5,False,53,female,Bea,fr,200,0,0,2,1,2,0.0,--,--,--,--,--
Contrast Stuff,2022_Oct_14_1127,100,1200,1920,49,2,1.5,False,53,female,Bea,fr,201,0,0,1,1,2,0.0,--,--,--,--,--
Contrast Stuff,2022_Oct_14_1127,100,1200,1920,49,2,1.5,False,53,female,Bea,fr,202,0,0,2,1,2,0.0,--,--,--,--,--
Contrast Stuff,2022_Oct_14_1127,100,1200,1920,49,2,1.5,False,53,female,Bea,fr,203,0,0,2,1,2,0.0,--,--,--,--,--
Contrast Stuff,2022_Oct_14_1127,100,1200,1920,49,2,1.5,False,53,female,Bea,fr,204,0,0,1,0,2,0.0,--,--,--,--,--
Contrast Stuff,2022_Oct_14_1127,100,1200,1920,49,2,1.5,False,53,female,Bea,fr,205,0,0,1,0,2,0.0,--,--,--,--,--
Contrast Stuff,2022_Oct_14_1127,100,1200,1920,49,2,1.5,False,53,female,Bea,fr,206,0,0,1,1,2,0.0,--,--,--,--,--
Contrast Stuff,2022_Oct_14_1127,100,1200,1920,49,2,1.5,False,53,female,Bea,fr,207,0,0,1,1,2,0.0,--,--,--,--,--
Contrast Stuff,2022_Oct_14_1127,100,1200,1920,49,2,1.5,False,53,female,Bea,fr,208,0,0,2,0,2,0.0,--,--,--,--,--
Contrast Stuff,2022_Oct_14_1127,100,1200,1920,49,2,1.5,False,53,female,Bea,fr,209,0,0,1,1,2,0.0,--,--,--,--,--
Contrast Stuff,2022_Oct_14_1127,100,1200,1920,49,2,1.5,False,53,female,Bea,fr,210,0,0,2,1,2,0.0,--,--,--,--,--
Contrast Stuff,2022_Oct_14_1127,100,1200,1920,49,2,1.5,False,53,female,Bea,fr,211,0,0,1,1,2,0.0,--,--,--,--,--
Contrast Stuff,2022_Oct_14_1127,100,1200,1920,49,2,1.5,False,53,female,Bea,fr,212,0,0,1,0,2,0.0,--,--,--,--,--
Contrast Stuff,2022_Oct_14_1127,100,1200,1920,49,2,1.5,False,53,female,Bea,fr,213,0,0,2,0,2,0.0,--,--,--,--,--
Contrast Stuff,2022_Oct_14_1127,100,1200,1920,49,2,1.5,False,53,female,Bea,fr,214,0,0,2,1,2,0.0,--,--,--,--,--
Contrast Stuff,2022_Oct_14_1127,100,1200,1920,49,2,1.5,False,53,female,Bea,fr,215,0,0,1,1,2,0.0,--,--,--,--,--
Contrast Stuff,2022_Oct_14_1127,100,1200,1920,49,2,1.5,False,53,female,Bea,fr,216,0,0,1,1,2,0.0,--,--,--,--,--
Contrast Stuff,2022_Oct_14_1127,100,1200,1920,49,2,1.5,False,53,female,Bea,fr,217,0,0,2,1,2,0.0,--,--,--,--,--
Contrast Stuff,2022_Oct_14_1127,100,1200,1920,49,2,1.5,False,53,female,Bea,fr,218,0,0,1,0,2,0.0,--,--,--,--,--
Contrast Stuff,2022_Oct_14_1127,100,1200,1920,49,2,1.5,False,53,female,Bea,fr,219,0,0,1,0,2,0.0,--,--,--,--,--
Contrast Stuff,2022_Oct_14_1127,100,1200,1920,49,2,1.5,False,53,female,Bea,fr,220,0,0,2,0,2,0.0,--,--,--,--,--
Contrast Stuff,2022_Oct_14_1127,100,1200,1920,49,2,1.5,False,53,female,Bea,fr,221,0,0,2,0,2,0.0,--,--,--,--,--
Contrast Stuff,2022_Oct_14_1127,100,1200,1920,49,2,1.5,False,53,female,Bea,fr,222,0,0,2,0,2,0.0,--,--,--,--,--
Contrast Stuff,2022_Oct_14_1127,100,1200,1920,49,2,1.5,False,53,female,Bea,fr,223,0,0,2,0,2,0.0,--,--,--,--,--
Contrast Stuff,2022_Oct_14_1127,100,1200,1920,49,2,1.5,False,53,female,Bea,fr,224,0,0,2,0,2,0.0,--,--,--,--,--
Contrast Stuff,2022_Oct_14_1127,100,1200,1920,49,2,1.5,False,53,female,Bea,fr,225,0,0,1,1,2,0.0,--,--,--,--,--
Contrast Stuff,2022_Oct_14_1127,100,1200,1920,49,2,1.5,False,53,female,Bea,fr,226,0,0,1,1,2,0.0,--,--,--,--,--
Contrast Stuff,2022_Oct_14_1127,100,1200,1920,49,2,1.5,False,53,female,Bea,fr,227,0,0,2,1,2,0.0,--,--,--,--,--
Contrast Stuff,2022_Oct_14_1127,100,1200,1920,49,2,1.5,False,53,female,Bea,fr,228,0,0,1,1,2,0.0,--,--,--,--,--
Contrast Stuff,2022_Oct_14_1127,100,1200,1920,49,2,1.5,False,53,female,Bea,fr,229,0,0,2,0,2,0.0,--,--,--,--,--
Contrast Stuff,2022_Oct_14_1127,100,1200,1920,49,2,1.5,False,53,female,Bea,fr,230,0,0,1,0,2,0.0,--,--,--,--,--
Contrast Stuff,2022_Oct_14_1127,100,1200,1920,49,2,1.5,False,53,female,Bea,fr,231,0,0,2,0,2,0.0,--,--,--,--,--
Contrast Stuff,2022_Oct_14_1127,100,1200,1920,49,2,1.5,False,53,female,Bea,fr,232,0,0,1,0,2,0.0,--,--,--,--,--
Contrast Stuff,2022_Oct_14_1127,100,1200,1920,49,2,1.5,False,53,female,Bea,fr,233,0,0,1,0,2,0.0,--,--,--,--,--
Contrast Stuff,2022_Oct_14_1127,100,1200,1920,49,2,1.5,False,53,female,Bea,fr,234,0,0,1,0,2,0.0,--,--,--,--,--
Contrast Stuff,2022_Oct_14_1127,100,1200,1920,49,2,1.5,False,53,female,Bea,fr,235,0,0,2,1,2,0.0,--,--,--,--,--
Contrast Stuff,2022_Oct_14_1127,100,1200,1920,49,2,1.5,False,53,female,Bea,fr,236,0,0,1,1,2,0.0,--,--,--,--,--
Contrast Stuff,2022_Oct_14_1127,100,1200,1920,49,2,1.5,False,53,female,Bea,fr,237,0,0,2,0,2,0.0,--,--,--,--,--
Contrast Stuff,2022_Oct_14_1127,100,1200,1920,49,2,1.5,False,53,female,Bea,fr,238,0,0,2,0,2,0.0,--,--,--,--,--
Contrast Stuff,2022_Oct_14_1127,100,1200,1920,49,2,1.5,False,53,female,Bea,fr,239,0,0,2,1,2,0.0,--,--,--,--,--
Contrast Stuff,2022_Oct_14_1127,100,1200,1920,49,2,1.5,False,53,female,Bea,fr,240,0,0,2,0,2,0.0,--,--,--,--,--
Contrast Stuff,2022_Oct_14_1127,100,1200,1920,49,2,1.5,False,53,female,Bea,fr,241,0,0,2,0,2,0.0,--,--,--,--,--
Contrast Stuff,2022_Oct_14_1127,100,1200,1920,49,2,1.5,False,53,female,Bea,fr,242,0,0,2,1,2,0.0,--,--,--,--,--
Contrast Stuff,2022_Oct_14_1127,100,1200,1920,49,2,1.5,False,53,female,Bea,fr,243,0,0,2,0,2,0.0,--,--,--,--,--
Contrast Stuff,2022_Oct_14_1127,100,1200,1920,49,2,1.5,False,53,female,Bea,fr,244,0,0,1,0,2,0.0,--,--,--,--,--
Contrast Stuff,2022_Oct_14_1127,100,1200,1920,49,2,1.5,False,53,female,Bea,fr,245,0,0,1,0,2,0.0,--,--,--,--,--
Contrast Stuff,2022_Oct_14_1127,100,1200,1920,49,2,1.5,False,53,female,Bea,fr,246,0,0,1,1,2,0.0,--,--,--,--,--
Contrast Stuff,2022_Oct_14_1127,100,1200,1920,49,2,1.5,False,53,female,Bea,fr,247,0,0,1,1,2,0.0,--,--,--,--,--
Contrast Stuff,2022_Oct_14_1127,100,1200,1920,49,2,1.5,False,53,female,Bea,fr,248,0,0,1,0,2,0.0,--,--,--,--,--
Contrast Stuff,2022_Oct_14_1127,100,1200,1920,49,2,1.5,False,53,female,Bea,fr,249,0,0,1,1,2,0.0,--,--,--,--,--
Contrast Stuff,2022_Oct_14_1127,100,1200,1920,49,2,1.5,False,53,female,Bea,fr,250,0,0,2,1,2,0.0,--,--,--,--,--
Contrast Stuff,2022_Oct_14_1127,100,1200,1920,49,2,1.5,False,53,female,Bea,fr,251,0,0,1,0,2,0.0,--,--,--,--,--
Contrast Stuff,2022_Oct_14_1127,100,1200,1920,49,2,1.5,False,53,female,Bea,fr,252,0,0,1,0,2,0.0,--,--,--,--,--
Contrast Stuff,2022_Oct_14_1127,100,1200,1920,49,2,1.5,False,53,female,Bea,fr,253,0,0,2,0,2,0.0,--,--,--,--,--
Contrast Stuff,2022_Oct_14_1127,100,1200,1920,49,2,1.5,False,53,female,Bea,fr,254,0,0,2,0,2,0.0,--,--,--,--,--
Contrast Stuff,2022_Oct_14_1127,100,1200,1920,49,2,1.5,False,53,female,Bea,fr,255,0,0,1,1,2,0.0,--,--,--,--,--
Contrast Stuff,2022_Oct_14_1127,100,1200,1920,49,2,1.5,False,53,female,Bea,fr,256,0,0,1,1,2,0.0,--,--,--,--,--
Contrast Stuff,2022_Oct_14_1127,100,1200,1920,49,2,1.5,False,53,female,Bea,fr,257,0,0,1,0,2,0.0,--,--,--,--,--
Contrast Stuff,2022_Oct_14_1127,100,1200,1920,49,2,1.5,False,53,female,Bea,fr,258,0,0,1,0,2,0.0,--,--,--,--,--
Contrast Stuff,2022_Oct_14_1127,100,1200,1920,49,2,1.5,False,53,female,Bea,fr,259,0,0,2,0,2,0.0,--,--,--,--,--
Contrast Stuff,2022_Oct_14_1127,100,1200,1920,49,2,1.5,False,53,female,Bea,fr,260,0,0,1,0,2,0.0,--,--,--,--,--
Contrast Stuff,2022_Oct_14_1127,100,1200,1920,49,2,1.5,False,53,female,Bea,fr,261,0,0,1,1,2,0.0,--,--,--,--,--
Contrast Stuff,2022_Oct_14_1127,100,1200,1920,49,2,1.5,False,53,female,Bea,fr,262,0,0,2,1,2,0.0,--,--,--,--,--
Contrast Stuff,2022_Oct_14_1127,100,1200,1920,49,2,1.5,False,53,female,Bea,fr,263,0,0,2,1,2,0.0,--,--,--,--,--
Contrast Stuff,2022_Oct_14_1127,100,1200,1920,49,2,1.5,False,53,female,Bea,fr,264,0,0,2,1,2,0.0,--,--,--,--,--
Contrast Stuff,2022_Oct_14_1127,100,1200,1920,49,2,1.5,False,53,female,Bea,fr,265,0,0,2,0,2,0.0,--,--,--,--,--
Contrast Stuff,2022_Oct_14_1127,100,1200,1920,49,2,1.5,False,53,female,Bea,fr,266,0,0,2,1,2,0.0,--,--,--,--,--
Contrast Stuff,2022_Oct_14_1127,100,1200,1920,49,2,1.5,False,53,female,Bea,fr,267,0,0,2,1,2,0.0,--,--,--,--,--
Contrast Stuff,2022_Oct_14_1127,100,1200,1920,49,2,1.5,False,53,female,Bea,fr,268,0,0,2,0,2,0.0,--,--,--,--,--
Contrast Stuff,2022_Oct_14_1127,100,1200,1920,49,2,1.5,False,53,female,Bea,fr,269,0,0,2,1,2,0.0,--,--,--,--,--
Contrast Stuff,2022_Oct_14_1127,100,1200,1920,49,2,1.5,False,53,female,Bea,fr,270,0,0,1,1,2,0.0,--,--,--,--,--
Contrast Stuff,2022_Oct_14_1127,100,1200,1920,49,2,1.5,False,53,female,Bea,fr,271,0,0,2,1,2,0.0,--,--,--,--,--
Contrast Stuff,2022_Oct_14_1127,100,1200,1920,49,2,1.5,False,53,female,Bea,fr,272,0,0,1,0,2,0.0,--,--,--,--,--
Contrast Stuff,2022_Oct_14_1127,100,1200,1920,49,2,1.5,False,53,female,Bea,fr,273,0,0,1,0,2,0.0,--,--,--,--,--
Contrast Stuff,2022_Oct_14_1127,100,1200,1920,49,2,1.5,False,53,female,Bea,fr,274,0,0,1,1,2,0.0,--,--,--,--,--
Contrast Stuff,2022_Oct_14_1127,100,1200,1920,49,2,1.5,False,53,female,Bea,fr,275,0,0,2,1,2,0.0,--,--,--,--,--
Contrast Stuff,2022_Oct_14_1127,100,1200,1920,49,2,1.5,False,53,female,Bea,fr,276,0,0,1,0,2,0.0,--,--,--,--,--
Contrast Stuff,2022_Oct_14_1127,100,1200,1920,49,2,1.5,False,53,female,Bea,fr,277,0,0,2,0,2,0.0,--,--,--,--,--
Contrast Stuff,2022_Oct_14_1127,100,1200,1920,49,2,1.5,False,53,female,Bea,fr,278,0,0,2,1,2,0.0,--,--,--,--,--
Contrast Stuff,2022_Oct_14_1127,100,1200,1920,49,2,1.5,False,53,female,Bea,fr,279,0,0,1,1,2,0.0,--,--,--,--,--
Contrast Stuff,2022_Oct_14_1127,100,1200,1920,49,2,1.5,False,53,female,Bea,fr,280,0,0,2,1,2,0.0,--,--,--,--,--
Contrast Stuff,2022_Oct_14_1127,100,1200,1920,49,2,1.5,False,53,female,Bea,fr,281,0,0,1,1,2,0.0,--,--,--,--,--
Contrast Stuff,2022_Oct_14_1127,100,1200,1920,49,2,1.5,False,53,female,Bea,fr,282,0,0,2,1,2,0.0,--,--,--,--,--
Contrast Stuff,2022_Oct_14_1127,100,1200,1920,49,2,1.5,False,53,female,Bea,fr,283,0,0,2,1,2,0.0,--,--,--,--,--
Contrast Stuff,2022_Oct_14_1127,100,1200,1920,49,2,1.5,False,53,female,Bea,fr,284,0,0,1,0,2,0.0,--,--,--,--,--
Contrast Stuff,2022_Oct_14_1127,100,1200,1920,49,2,1.5,False,53,female,Bea,fr,285,0,0,1,0,2,0.0,--,--,--,--,--
Contrast Stuff,2022_Oct_14_1127,100,1200,1920,49,2,1.5,False,53,female,Bea,fr,286,0,0,1,1,2,0.0,--,--,--,--,--
Contrast Stuff,2022_Oct_14_1127,100,1200,1920,49,2,1.5,False,53,female,Bea,fr,287,0,0,1,1,2,0.0,--,--,--,--,--
Contrast Stuff,2022_Oct_14_1127,100,1200,1920,49,2,1.5,False,53,female,Bea,fr,288,0,0,2,0,2,0.0,--,--,--,--,--
Contrast Stuff,2022_Oct_14_1127,100,1200,1920,49,2,1.5,False,53,female,Bea,fr,289,0,0,1,1,2,0.0,--,--,--,--,--
Contrast Stuff,2022_Oct_14_1127,100,1200,1920,49,2,1.5,False,53,female,Bea,fr,290,0,0,2,1,2,0.0,--,--,--,--,--
Contrast Stuff,2022_Oct_14_1127,100,1200,1920,49,2,1.5,False,53,female,Bea,fr,291,0,0,1,1,2,0.0,--,--,--,--,--
Contrast Stuff,2022_Oct_14_1127,100,1200,1920,49,2,1.5,False,53,female,Bea,fr,292,0,0,1,0,2,0.0,--,--,--,--,--
Contrast Stuff,2022_Oct_14_1127,100,1200,1920,49,2,1.5,False,53,female,Bea,fr,293,0,0,2,0,2,0.0,--,--,--,--,--
Contrast Stuff,2022_Oct_14_1127,100,1200,1920,49,2,1.5,False,53,female,Bea,fr,294,0,0,2,1,2,0.0,--,--,--,--,--
Contrast Stuff,2022_Oct_14_1127,100,1200,1920,49,2,1.5,False,53,female,Bea,fr,295,0,0,1,1,2,0.0,--,--,--,--,--
Contrast Stuff,2022_Oct_14_1127,100,1200,1920,49,2,1.5,False,53,female,Bea,fr,296,0,0,1,1,2,0.0,--,--,--,--,--
Contrast Stuff,2022_Oct_14_1127,100,1200,1920,49,2,1.5,False,53,female,Bea,fr,297,0,0,2,1,2,0.0,--,--,--,--,--
Contrast Stuff,2022_Oct_14_1127,100,1200,1920,49,2,1.5,False,53,female,Bea,fr,298,0,0,1,0,2,0.0,--,--,--,--,--
Contrast Stuff,2022_Oct_14_1127,100,1200,1920,49,2,1.5,False,53,female,Bea,fr,299,0,0,1,0,2,0.0,--,--,--,--,--
Contrast Stuff,2022_Oct_14_1127,100,1200,1920,49,2,1.5,False,53,female,Bea,fr,300,0,0,2,0,2,0.0,--,--,--,--,--
Contrast Stuff,2022_Oct_14_1127,100,1200,1920,49,2,1.5,False,53,female,Bea,fr,301,0,0,2,0,2,0.0,--,--,--,--,--
Contrast Stuff,2022_Oct_14_1127,100,1200,1920,49,2,1.5,False,53,female,Bea,fr,302,0,0,2,0,2,0.0,--,--,--,--,--
Contrast Stuff,2022_Oct_14_1127,100,1200,1920,49,2,1.5,False,53,female,Bea,fr,303,0,0,2,0,2,0.0,--,--,--,--,--
Contrast Stuff,2022_Oct_14_1127,100,1200,1920,49,2,1.5,False,53,female,Bea,fr,304,0,0,2,0,2,0.0,--,--,--,--,--
Contrast Stuff,2022_Oct_14_1127,100,1200,1920,49,2,1.5,False,53,female,Bea,fr,305,0,0,1,1,2,0.0,--,--,--,--,--
Contrast Stuff,2022_Oct_14_1127,100,1200,1920,49,2,1.5,False,53,female,Bea,fr,306,0,0,1,1,2,0.0,--,--,--,--,--
Contrast Stuff,2022_Oct_14_1127,100,1200,1920,49,2,1.5,False,53,female,Bea,fr,307,0,0,2,1,2,0.0,--,--,--,--,--
Contrast Stuff,2022_Oct_14_1127,100,1200,1920,49,2,1.5,False,53,female,Bea,fr,308,0,0,1,1,2,0.0,--,--,--,--,--
Contrast Stuff,2022_Oct_14_1127,100,1200,1920,49,2,1.5,False,53,female,Bea,fr,309,0,0,2,0,2,0.0,--,--,--,--,--
Contrast Stuff,2022_Oct_14_1127,100,1200,1920,49,2,1.5,False,53,female,Bea,fr,310,0,0,1,0,2,0.0,--,--,--,--,--
Contrast Stuff,2022_Oct_14_1127,100,1200,1920,49,2,1.5,False,53,female,Bea,fr,311,0,0,2,0,2,0.0,--,--,--,--,--
Contrast Stuff,2022_Oct_14_1127,100,1200,1920,49,2,1.5,False,53,female,Bea,fr,312,0,0,1,0,2,0.0,--,--,--,--,--
Contrast Stuff,2022_Oct_14_1127,100,1200,1920,49,2,1.5,False,53,female,Bea,fr,313,0,0,1,0,2,0.0,--,--,--,--,--
Contrast Stuff,2022_Oct_14_1127,100,1200,1920,49,2,1.5,False,53,female,Bea,fr,314,0,0,1,0,2,0.0,--,--,--,--,--
Contrast Stuff,2022_Oct_14_1127,100,1200,1920,49,2,1.5,False,53,female,Bea,fr,315,0,0,2,1,2,0.0,--,--,--,--,--
Contrast Stuff,2022_Oct_14_1127,100,1200,1920,49,2,1.5,False,53,female,Bea,fr,316,0,0,1,1,2,0.0,--,--,--,--,--
Contrast Stuff,2022_Oct_14_1127,100,1200,1920,49,2,1.5,False,53,female,Bea,fr,317,0,0,2,0,2,0.0,--,--,--,--,--
Contrast Stuff,2022_Oct_14_1127,100,1200,1920,49,2,1.5,False,53,female,Bea,fr,318,0,0,2,0,2,0.0,--,--,--,--,--
Contrast Stuff,2022_Oct_14_1127,100,1200,1920,49,2,1.5,False,53,female,Bea,fr,319,0,0,2,1,2,0.0,--,--,--,--,--
Contrast Stuff,2022_Oct_14_1127,100,1200,1920,49,2,1.5,False,53,female,Bea,fr,320,0,0,2,0,2,0.0,--,--,--,--,--
Contrast Stuff,2022_Oct_14_1127,100,1200,1920,49,2,1.5,False,53,female,Bea,fr,321,90,0,2,0,1,0.0,--,--,--,--,--
Contrast Stuff,2022_Oct_14_1127,100,1200,1920,49,2,1.5,False,53,female,Bea,fr,322,90,0,1,1,1,0.0,--,--,--,--,--
Contrast Stuff,2022_Oct_14_1127,100,1200,1920,49,2,1.5,False,53,female,Bea,fr,323,90,0,1,0,1,0.0,--,--,--,--,--
Contrast Stuff,2022_Oct_14_1127,100,1200,1920,49,2,1.5,False,53,female,Bea,fr,324,90,0,1,0,1,0.0,--,--,--,--,--
Contrast Stuff,2022_Oct_14_1127,100,1200,1920,49,2,1.5,False,53,female,Bea,fr,325,90,0,2,0,1,0.0,--,--,--,--,--
Contrast Stuff,2022_Oct_14_1127,100,1200,1920,49,2,1.5,False,53,female,Bea,fr,326,90,0,1,0,1,0.0,--,--,--,--,--
Contrast Stuff,2022_Oct_14_1127,100,1200,1920,49,2,1.5,False,53,female,Bea,fr,327,90,0,1,0,1,0.0,--,--,--,--,--
Contrast Stuff,2022_Oct_14_1127,100,1200,1920,49,2,1.5,False,53,female,Bea,fr,328,90,0,2,1,1,0.0,--,--,--,--,--
Contrast Stuff,2022_Oct_14_1127,100,1200,1920,49,2,1.5,False,53,female,Bea,fr,329,90,0,2,1,1,0.0,--,--,--,--,--
Contrast Stuff,2022_Oct_14_1127,100,1200,1920,49,2,1.5,False,53,female,Bea,fr,330,90,0,1,0,1,0.0,--,--,--,--,--
Contrast Stuff,2022_Oct_14_1127,100,1200,1920,49,2,1.5,False,53,female,Bea,fr,331,90,0,2,0,1,0.0,--,--,--,--,--
Contrast Stuff,2022_Oct_14_1127,100,1200,1920,49,2,1.5,False,53,female,Bea,fr,332,90,0,2,0,1,0.0,--,--,--,--,--
Contrast Stuff,2022_Oct_14_1127,100,1200,1920,49,2,1.5,False,53,female,Bea,fr,333,90,0,2,1,1,0.0,--,--,--,--,--
Contrast Stuff,2022_Oct_14_1127,100,1200,1920,49,2,1.5,False,53,female,Bea,fr,334,90,0,1,1,1,0.0,--,--,--,--,--
Contrast Stuff,2022_Oct_14_1127,100,1200,1920,49,2,1.5,False,53,female,Bea,fr,335,90,0,1,0,1,0.0,--,--,--,--,--
Contrast Stuff,2022_Oct_14_1127,100,1200,1920,49,2,1.5,False,53,female,Bea,fr,336,90,0,1,0,1,0.0,--,--,--,--,--
Contrast Stuff,2022_Oct_14_1127,100,1200,1920,49,2,1.5,False,53,female,Bea,fr,337,90,0,1,0,1,0.0,--,--,--,--,--
Contrast Stuff,2022_Oct_14_1127,100,1200,1920,49,2,1.5,False,53,female,Bea,fr,338,90,0,2,1,1,0.0,--,--,--,--,--
Contrast Stuff,2022_Oct_14_1127,100,1200,1920,49,2,1.5,False,53,female,Bea,fr,339,90,0,1,1,1,0.0,--,--,--,--,--
Contrast Stuff,2022_Oct_14_1127,100,1200,1920,49,2,1.5,False,53,female,Bea,fr,340,90,0,1,1,1,0.0,--,--,--,--,--
Contrast Stuff,2022_Oct_14_1127,100,1200,1920,49,2,1.5,False,53,female,Bea,fr,341,90,0,1,1,1,0.0,--,--,--,--,--
Contrast Stuff,2022_Oct_14_1127,100,1200,1920,49,2,1.5,False,53,female,Bea,fr,342,90,0,1,1,1,0.0,--,--,--,--,--
Contrast Stuff,2022_Oct_14_1127,100,1200,1920,49,2,1.5,False,53,female,Bea,fr,343,90,0,1,1,1,0.0,--,--,--,--,--
Contrast Stuff,2022_Oct_14_1127,100,1200,1920,49,2,1.5,False,53,female,Bea,fr,344,90,0,2,0,1,0.0,--,--,--,--,--
Contrast Stuff,2022_Oct_14_1127,100,1200,1920,49,2,1.5,False,53,female,Bea,fr,345,90,0,2,0,1,0.0,--,--,--,--,--
Contrast Stuff,2022_Oct_14_1127,100,1200,1920,49,2,1.5,False,53,female,Bea,fr,346,90,0,1,1,1,0.0,--,--,--,--,--
Contrast Stuff,2022_Oct_14_1127,100,1200,1920,49,2,1.5,False,53,female,Bea,fr,347,90,0,1,0,1,0.0,--,--,--,--,--
Contrast Stuff,2022_Oct_14_1127,100,1200,1920,49,2,1.5,False,53,female,Bea,fr,348,90,0,1,0,1,0.0,--,--,--,--,--
Contrast Stuff,2022_Oct_14_1127,100,1200,1920,49,2,1.5,False,53,female,Bea,fr,349,90,0,1,1,1,0.0,--,--,--,--,--
Contrast Stuff,2022_Oct_14_1127,100,1200,1920,49,2,1.5,False,53,female,Bea,fr,350,90,0,1,0,1,0.0,--,--,--,--,--
Contrast Stuff,2022_Oct_14_1127,100,1200,1920,49,2,1.5,False,53,female,Bea,fr,351,90,0,2,0,1,0.0,--,--,--,--,--
Contrast Stuff,2022_Oct_14_1127,100,1200,1920,49,2,1.5,False,53,female,Bea,fr,352,90,0,2,0,1,0.0,--,--,--,--,--
Contrast Stuff,2022_Oct_14_1127,100,1200,1920,49,2,1.5,False,53,female,Bea,fr,353,90,0,2,1,1,0.0,--,--,--,--,--
Contrast Stuff,2022_Oct_14_1127,100,1200,1920,49,2,1.5,False,53,female,Bea,fr,354,90,0,2,1,1,0.0,--,--,--,--,--
Contrast Stuff,2022_Oct_14_1127,100,1200,1920,49,2,1.5,False,53,female,Bea,fr,355,90,0,2,1,1,0.0,--,--,--,--,--
Contrast Stuff,2022_Oct_14_1127,100,1200,1920,49,2,1.5,False,53,female,Bea,fr,356,90,0,2,1,1,0.0,--,--,--,--,--
Contrast Stuff,2022_Oct_14_1127,100,1200,1920,49,2,1.5,False,53,female,Bea,fr,357,90,0,1,1,1,0.0,--,--,--,--,--
Contrast Stuff,2022_Oct_14_1127,100,1200,1920,49,2,1.5,False,53,female,Bea,fr,358,90,0,1,1,1,0.0,--,--,--,--,--
Contrast Stuff,2022_Oct_14_1127,100,1200,1920,49,2,1.5,False,53,female,Bea,fr,359,90,0,2,0,1,0.0,--,--,--,--,--
Contrast Stuff,2022_Oct_14_1127,100,1200,1920,49,2,1.5,False,53,female,Bea,fr,360,90,0,2,1,1,0.0,--,--,--,--,--
Contrast Stuff,2022_Oct_14_1127,100,1200,1920,49,2,1.5,False,53,female,Bea,fr,361,90,0,2,1,1,0.0,--,--,--,--,--
Contrast Stuff,2022_Oct_14_1127,100,1200,1920,49,2,1.5,False,53,female,Bea,fr,362,90,0,2,0,1,0.0,--,--,--,--,--
Contrast Stuff,2022_Oct_14_1127,100,1200,1920,49,2,1.5,False,53,female,Bea,fr,363,90,0,2,0,1,0.0,--,--,--,--,--
Contrast Stuff,2022_Oct_14_1127,100,1200,1920,49,2,1.5,False,53,female,Bea,fr,364,90,0,2,0,1,0.0,--,--,--,--,--
Contrast Stuff,2022_Oct_14_1127,100,1200,1920,49,2,1.5,False,53,female,Bea,fr,365,90,0,1,1,1,0.0,--,--,--,--,--
Contrast Stuff,2022_Oct_14_1127,100,1200,1920,49,2,1.5,False,53,female,Bea,fr,366,90,0,1,0,1,0.0,--,--,--,--,--
Contrast Stuff,2022_Oct_14_1127,100,1200,1920,49,2,1.5,False,53,female,Bea,fr,367,90,0,1,1,1,0.0,--,--,--,--,--
Contrast Stuff,2022_Oct_14_1127,100,1200,1920,49,2,1.5,False,53,female,Bea,fr,368,90,0,2,1,1,0.0,--,--,--,--,--
Contrast Stuff,2022_Oct_14_1127,100,1200,1920,49,2,1.5,False,53,female,Bea,fr,369,90,0,2,0,1,0.0,--,--,--,--,--
Contrast Stuff,2022_Oct_14_1127,100,1200,1920,49,2,1.5,False,53,female,Bea,fr,370,90,0,1,1,1,0.0,--,--,--,--,--
Contrast Stuff,2022_Oct_14_1127,100,1200,1920,49,2,1.5,False,53,female,Bea,fr,371,90,0,1,1,1,0.0,--,--,--,--,--
Contrast Stuff,2022_Oct_14_1127,100,1200,1920,49,2,1.5,False,53,female,Bea,fr,372,90,0,1,1,1,0.0,--,--,--,--,--
Contrast Stuff,2022_Oct_14_1127,100,1200,1920,49,2,1.5,False,53,female,Bea,fr,373,90,0,2,0,1,0.0,--,--,--,--,--
Contrast Stuff,2022_Oct_14_1127,100,1200,1920,49,2,1.5,False,53,female,Bea,fr,374,90,0,2,1,1,0.0,--,--,--,--,--
Contrast Stuff,2022_Oct_14_1127,100,1200,1920,49,2,1.5,False,53,female,Bea,fr,375,90,0,2,0,1,0.0,--,--,--,--,--
Contrast Stuff,2022_Oct_14_1127,100,1200,1920,49,2,1.5,False,53,female,Bea,fr,376,90,0,1,0,1,0.0,--,--,--,--,--
Contrast Stuff,2022_Oct_14_1127,100,1200,1920,49,2,1.5,False,53,female,Bea,fr,377,90,0,2,1,1,0.0,--,--,--,--,--
Contrast Stuff,2022_Oct_14_1127,100,1200,1920,49,2,1.5,False,53,female,Bea,fr,378,90,0,1,0,1,0.0,--,--,--,--,--
Contrast Stuff,2022_Oct_14_1127,100,1200,1920,49,2,1.5,False,53,female,Bea,fr,379,90,0,1,1,1,0.0,--,--,--,--,--
Contrast Stuff,2022_Oct_14_1127,100,1200,1920,49,2,1.5,False,53,female,Bea,fr,380,90,0,1,1,1,0.0,--,--,--,--,--
Contrast Stuff,2022_Oct_14_1127,100,1200,1920,49,2,1.5,False,53,female,Bea,fr,381,90,0,2,1,1,0.0,--,--,--,--,--
Contrast Stuff,2022_Oct_14_1127,100,1200,1920,49,2,1.5,False,53,female,Bea,fr,382,90,0,1,0,1,0.0,--,--,--,--,--
Contrast Stuff,2022_Oct_14_1127,100,1200,1920,49,2,1.5,False,53,female,Bea,fr,383,90,0,2,1,1,0.0,--,--,--,--,--
Contrast Stuff,2022_Oct_14_1127,100,1200,1920,49,2,1.5,False,53,female,Bea,fr,384,90,0,1,0,1,0.0,--,--,--,--,--
Contrast Stuff,2022_Oct_14_1127,100,1200,1920,49,2,1.5,False,53,female,Bea,fr,385,90,0,2,1,1,0.0,--,--,--,--,--
Contrast Stuff,2022_Oct_14_1127,100,1200,1920,49,2,1.5,False,53,female,Bea,fr,386,90,0,2,0,1,0.0,--,--,--,--,--
Contrast Stuff,2022_Oct_14_1127,100,1200,1920,49,2,1.5,False,53,female,Bea,fr,387,90,0,2,0,1,0.0,--,--,--,--,--
Contrast Stuff,2022_Oct_14_1127,100,1200,1920,49,2,1.5,False,53,female,Bea,fr,388,90,0,2,1,1,0.0,--,--,--,--,--
Contrast Stuff,2022_Oct_14_1127,100,1200,1920,49,2,1.5,False,53,female,Bea,fr,389,90,0,1,1,1,0.0,--,--,--,--,--
Contrast Stuff,2022_Oct_14_1127,100,1200,1920,49,2,1.5,False,53,female,Bea,fr,390,90,0,1,0,1,0.0,--,--,--,--,--
Contrast Stuff,2022_Oct_14_1127,100,1200,1920,49,2,1.5,False,53,female,Bea,fr,391,90,0,2,0,1,0.0,--,--,--,--,--
Contrast Stuff,2022_Oct_14_1127,100,1200,1920,49,2,1.5,False,53,female,Bea,fr,392,90,0,1,0,1,0.0,--,--,--,--,--
Contrast Stuff,2022_Oct_14_1127,100,1200,1920,49,2,1.5,False,53,female,Bea,fr,393,90,0,2,1,1,0.0,--,--,--,--,--
Contrast Stuff,2022_Oct_14_1127,100,1200,1920,49,2,1.5,False,53,female,Bea,fr,394,90,0,1,0,1,0.0,--,--,--,--,--
Contrast Stuff,2022_Oct_14_1127,100,1200,1920,49,2,1.5,False,53,female,Bea,fr,395,90,0,1,1,1,0.0,--,--,--,--,--
Contrast Stuff,2022_Oct_14_1127,100,1200,1920,49,2,1.5,False,53,female,Bea,fr,396,90,0,1,0,1,0.0,--,--,--,--,--
Contrast Stuff,2022_Oct_14_1127,100,1200,1920,49,2,1.5,False,53,female,Bea,fr,397,90,0,2,0,1,0.0,--,--,--,--,--
Contrast Stuff,2022_Oct_14_1127,100,1200,1920,49,2,1.5,False,53,female,Bea,fr,398,90,0,2,1,1,0.0,--,--,--,--,--
Contrast Stuff,2022_Oct_14_1127,100,1200,1920,49,2,1.5,False,53,female,Bea,fr,399,90,0,2,0,1,0.0,--,--,--,--,--
Contrast Stuff,2022_Oct_14_1127,100,1200,1920,49,2,1.5,False,53,female,Bea,fr,400,90,0,2,1,1,0.0,--,--,--,--,--
Contrast Stuff,2022_Oct_14_1127,100,1200,1920,49,2,1.5,False,53,female,Bea,fr,401,361,0,1,0,3,0.0,--,--,--,--,--
Contrast Stuff,2022_Oct_14_1127,100,1200,1920,49,2,1.5,False,53,female,Bea,fr,402,361,0,1,0,3,0.0,--,--,--,--,--
Contrast Stuff,2022_Oct_14_1127,100,1200,1920,49,2,1.5,False,53,female,Bea,fr,403,361,0,2,1,3,0.0,--,--,--,--,--
Contrast Stuff,2022_Oct_14_1127,100,1200,1920,49,2,1.5,False,53,female,Bea,fr,404,361,0,1,0,3,0.0,--,--,--,--,--
Contrast Stuff,2022_Oct_14_1127,100,1200,1920,49,2,1.5,False,53,female,Bea,fr,405,361,0,1,0,3,0.0,--,--,--,--,--
Contrast Stuff,2022_Oct_14_1127,100,1200,1920,49,2,1.5,False,53,female,Bea,fr,406,361,0,2,0,3,0.0,--,--,--,--,--
Contrast Stuff,2022_Oct_14_1127,100,1200,1920,49,2,1.5,False,53,female,Bea,fr,407,361,0,1,1,3,0.0,--,--,--,--,--
Contrast Stuff,2022_Oct_14_1127,100,1200,1920,49,2,1.5,False,53,female,Bea,fr,408,361,0,2,1,3,0.0,--,--,--,--,--
Contrast Stuff,2022_Oct_14_1127,100,1200,1920,49,2,1.5,False,53,female,Bea,fr,409,361,0,1,1,3,0.0,--,--,--,--,--
Contrast Stuff,2022_Oct_14_1127,100,1200,1920,49,2,1.5,False,53,female,Bea,fr,410,361,0,1,0,3,0.0,--,--,--,--,--
Contrast Stuff,2022_Oct_14_1127,100,1200,1920,49,2,1.5,False,53,female,Bea,fr,411,361,0,1,1,3,0.0,--,--,--,--,--
Contrast Stuff,2022_Oct_14_1127,100,1200,1920,49,2,1.5,False,53,female,Bea,fr,412,361,0,1,1,3,0.0,--,--,--,--,--
Contrast Stuff,2022_Oct_14_1127,100,1200,1920,49,2,1.5,False,53,female,Bea,fr,413,361,0,2,0,3,0.0,--,--,--,--,--
Contrast Stuff,2022_Oct_14_1127,100,1200,1920,49,2,1.5,False,53,female,Bea,fr,414,361,0,1,0,3,0.0,--,--,--,--,--
Contrast Stuff,2022_Oct_14_1127,100,1200,1920,49,2,1.5,False,53,female,Bea,fr,415,361,0,1,1,3,0.0,--,--,--,--,--
Contrast Stuff,2022_Oct_14_1127,100,1200,1920,49,2,1.5,False,53,female,Bea,fr,416,361,0,2,1,3,0.0,--,--,--,--,--
Contrast Stuff,2022_Oct_14_1127,100,1200,1920,49,2,1.5,False,53,female,Bea,fr,417,361,0,1,1,3,0.0,--,--,--,--,--
Contrast Stuff,2022_Oct_14_1127,100,1200,1920,49,2,1.5,False,53,female,Bea,fr,418,361,0,1,1,3,0.0,--,--,--,--,--
Contrast Stuff,2022_Oct_14_1127,100,1200,1920,49,2,1.5,False,53,female,Bea,fr,419,361,0,1,0,3,0.0,--,--,--,--,--
Contrast Stuff,2022_Oct_14_1127,100,1200,1920,49,2,1.5,False,53,female,Bea,fr,420,361,0,1,0,3,0.0,--,--,--,--,--
Contrast Stuff,2022_Oct_14_1127,100,1200,1920,49,2,1.5,False,53,female,Bea,fr,421,361,0,1,1,3,0.0,--,--,--,--,--
Contrast Stuff,2022_Oct_14_1127,100,1200,1920,49,2,1.5,False,53,female,Bea,fr,422,361,0,1,1,3,0.0,--,--,--,--,--
Contrast Stuff,2022_Oct_14_1127,100,1200,1920,49,2,1.5,False,53,female,Bea,fr,423,361,0,1,1,3,0.0,--,--,--,--,--
Contrast Stuff,2022_Oct_14_1127,100,1200,1920,49,2,1.5,False,53,female,Bea,fr,424,361,0,2,1,3,0.0,--,--,--,--,--
Contrast Stuff,2022_Oct_14_1127,100,1200,1920,49,2,1.5,False,53,female,Bea,fr,425,361,0,1,0,3,0.0,--,--,--,--,--
Contrast Stuff,2022_Oct_14_1127,100,1200,1920,49,2,1.5,False,53,female,Bea,fr,426,361,0,1,0,3,0.0,--,--,--,--,--
Contrast Stuff,2022_Oct_14_1127,100,1200,1920,49,2,1.5,False,53,female,Bea,fr,427,361,0,2,0,3,0.0,--,--,--,--,--
Contrast Stuff,2022_Oct_14_1127,100,1200,1920,49,2,1.5,False,53,female,Bea,fr,428,361,0,2,0,3,0.0,--,--,--,--,--
Contrast Stuff,2022_Oct_14_1127,100,1200,1920,49,2,1.5,False,53,female,Bea,fr,429,361,0,2,0,3,0.0,--,--,--,--,--
Contrast Stuff,2022_Oct_14_1127,100,1200,1920,49,2,1.5,False,53,female,Bea,fr,430,361,0,2,0,3,0.0,--,--,--,--,--
Contrast Stuff,2022_Oct_14_1127,100,1200,1920,49,2,1.5,False,53,female,Bea,fr,431,361,0,2,1,3,0.0,--,--,--,--,--
Contrast Stuff,2022_Oct_14_1127,100,1200,1920,49,2,1.5,False,53,female,Bea,fr,432,361,0,1,0,3,0.0,--,--,--,--,--
Contrast Stuff,2022_Oct_14_1127,100,1200,1920,49,2,1.5,False,53,female,Bea,fr,433,361,0,1,1,3,0.0,--,--,--,--,--
Contrast Stuff,2022_Oct_14_1127,100,1200,1920,49,2,1.5,False,53,female,Bea,fr,434,361,0,2,1,3,0.0,--,--,--,--,--
Contrast Stuff,2022_Oct_14_1127,100,1200,1920,49,2,1.5,False,53,female,Bea,fr,435,361,0,2,0,3,0.0,--,--,--,--,--
Contrast Stuff,2022_Oct_14_1127,100,1200,1920,49,2,1.5,False,53,female,Bea,fr,436,361,0,2,0,3,0.0,--,--,--,--,--
Contrast Stuff,2022_Oct_14_1127,100,1200,1920,49,2,1.5,False,53,female,Bea,fr,437,361,0,2,0,3,0.0,--,--,--,--,--
Contrast Stuff,2022_Oct_14_1127,100,1200,1920,49,2,1.5,False,53,female,Bea,fr,438,361,0,1,0,3,0.0,--,--,--,--,--
Contrast Stuff,2022_Oct_14_1127,100,1200,1920,49,2,1.5,False,53,female,Bea,fr,439,361,0,2,1,3,0.0,--,--,--,--,--
Contrast Stuff,2022_Oct_14_1127,100,1200,1920,49,2,1.5,False,53,female,Bea,fr,440,361,0,2,1,3,0.0,--,--,--,--,--
Contrast Stuff,2022_Oct_14_1127,100,1200,1920,49,2,1.5,False,53,female,Bea,fr,441,361,0,2,0,3,0.0,--,--,--,--,--
Contrast Stuff,2022_Oct_14_1127,100,1200,1920,49,2,1.5,False,53,female,Bea,fr,442,361,0,2,0,3,0.0,--,--,--,--,--
Contrast Stuff,2022_Oct_14_1127,100,1200,1920,49,2,1.5,False,53,female,Bea,fr,443,361,0,2,0,3,0.0,--,--,--,--,--
Contrast Stuff,2022_Oct_14_1127,100,1200,1920,49,2,1.5,False,53,female,Bea,fr,444,361,0,1,1,3,0.0,--,--,--,--,--
Contrast Stuff,2022_Oct_14_1127,100,1200,1920,49,2,1.5,False,53,female,Bea,fr,445,361,0,1,1,3,0.0,--,--,--,--,--
Contrast Stuff,2022_Oct_14_1127,100,1200,1920,49,2,1.5,False,53,female,Bea,fr,446,361,0,2,0,3,0.0,--,--,--,--,--
Contrast Stuff,2022_Oct_14_1127,100,1200,1920,49,2,1.5,False,53,female,Bea,fr,447,361,0,2,1,3,0.0,--,--,--,--,--
Contrast Stuff,2022_Oct_14_1127,100,1200,1920,49,2,1.5,False,53,female,Bea,fr,448,361,0,2,0,3,0.0,--,--,--,--,--
Contrast Stuff,2022_Oct_14_1127,100,1200,1920,49,2,1.5,False,53,female,Bea,fr,449,361,0,2,1,3,0.0,--,--,--,--,--
Contrast Stuff,2022_Oct_14_1127,100,1200,1920,49,2,1.5,False,53,female,Bea,fr,450,361,0,1,1,3,0.0,--,--,--,--,--
Contrast Stuff,2022_Oct_14_1127,100,1200,1920,49,2,1.5,False,53,female,Bea,fr,451,361,0,2,1,3,0.0,--,--,--,--,--
Contrast Stuff,2022_Oct_14_1127,100,1200,1920,49,2,1.5,False,53,female,Bea,fr,452,361,0,1,0,3,0.0,--,--,--,--,--
Contrast Stuff,2022_Oct_14_1127,100,1200,1920,49,2,1.5,False,53,female,Bea,fr,453,361,0,1,1,3,0.0,--,--,--,--,--
Contrast Stuff,2022_Oct_14_1127,100,1200,1920,49,2,1.5,False,53,female,Bea,fr,454,361,0,1,1,3,0.0,--,--,--,--,--
Contrast Stuff,2022_Oct_14_1127,100,1200,1920,49,2,1.5,False,53,female,Bea,fr,455,361,0,1,0,3,0.0,--,--,--,--,--
Contrast Stuff,2022_Oct_14_1127,100,1200,1920,49,2,1.5,False,53,female,Bea,fr,456,361,0,2,1,3,0.0,--,--,--,--,--
Contrast Stuff,2022_Oct_14_1127,100,1200,1920,49,2,1.5,False,53,female,Bea,fr,457,361,0,1,0,3,0.0,--,--,--,--,--
Contrast Stuff,2022_Oct_14_1127,100,1200,1920,49,2,1.5,False,53,female,Bea,fr,458,361,0,1,1,3,0.0,--,--,--,--,--
Contrast Stuff,2022_Oct_14_1127,100,1200,1920,49,2,1.5,False,53,female,Bea,fr,459,361,0,1,1,3,0.0,--,--,--,--,--
Contrast Stuff,2022_Oct_14_1127,100,1200,1920,49,2,1.5,False,53,female,Bea,fr,460,361,0,1,1,3,0.0,--,--,--,--,--
Contrast Stuff,2022_Oct_14_1127,100,1200,1920,49,2,1.5,False,53,female,Bea,fr,461,361,0,2,1,3,0.0,--,--,--,--,--
Contrast Stuff,2022_Oct_14_1127,100,1200,1920,49,2,1.5,False,53,female,Bea,fr,462,361,0,2,1,3,0.0,--,--,--,--,--
Contrast Stuff,2022_Oct_14_1127,100,1200,1920,49,2,1.5,False,53,female,Bea,fr,463,361,0,2,1,3,0.0,--,--,--,--,--
Contrast Stuff,2022_Oct_14_1127,100,1200,1920,49,2,1.5,False,53,female,Bea,fr,464,361,0,2,1,3,0.0,--,--,--,--,--
Contrast Stuff,2022_Oct_14_1127,100,1200,1920,49,2,1.5,False,53,female,Bea,fr,465,361,0,2,0,3,0.0,--,--,--,--,--
Contrast Stuff,2022_Oct_14_1127,100,1200,1920,49,2,1.5,False,53,female,Bea,fr,466,361,0,2,0,3,0.0,--,--,--,--,--
Contrast Stuff,2022_Oct_14_1127,100,1200,1920,49,2,1.5,False,53,female,Bea,fr,467,361,0,1,0,3,0.0,--,--,--,--,--
Contrast Stuff,2022_Oct_14_1127,100,1200,1920,49,2,1.5,False,53,female,Bea,fr,468,361,0,2,0,3,0.0,--,--,--,--,--
Contrast Stuff,2022_Oct_14_1127,100,1200,1920,49,2,1.5,False,53,female,Bea,fr,469,361,0,2,0,3,0.0,--,--,--,--,--
Contrast Stuff,2022_Oct_14_1127,100,1200,1920,49,2,1.5,False,53,female,Bea,fr,470,361,0,1,0,3,0.0,--,--,--,--,--
Contrast Stuff,2022_Oct_14_1127,100,1200,1920,49,2,1.5,False,53,female,Bea,fr,471,361,0,2,1,3,0.0,--,--,--,--,--
Contrast Stuff,2022_Oct_14_1127,100,1200,1920,49,2,1.5,False,53,female,Bea,fr,472,361,0,2,0,3,0.0,--,--,--,--,--
Contrast Stuff,2022_Oct_14_1127,100,1200,1920,49,2,1.5,False,53,female,Bea,fr,473,361,0,1,1,3,0.0,--,--,--,--,--
Contrast Stuff,2022_Oct_14_1127,100,1200,1920,49,2,1.5,False,53,female,Bea,fr,474,361,0,1,0,3,0.0,--,--,--,--,--
Contrast Stuff,2022_Oct_14_1127,100,1200,1920,49,2,1.5,False,53,female,Bea,fr,475,361,0,2,1,3,0.0,--,--,--,--,--
Contrast Stuff,2022_Oct_14_1127,100,1200,1920,49,2,1.5,False,53,female,Bea,fr,476,361,0,2,1,3,0.0,--,--,--,--,--
Contrast Stuff,2022_Oct_14_1127,100,1200,1920,49,2,1.5,False,53,female,Bea,fr,477,361,0,1,0,3,0.0,--,--,--,--,--
Contrast Stuff,2022_Oct_14_1127,100,1200,1920,49,2,1.5,False,53,female,Bea,fr,478,361,0,1,0,3,0.0,--,--,--,--,--
Contrast Stuff,2022_Oct_14_1127,100,1200,1920,49,2,1.5,False,53,female,Bea,fr,479,361,0,2,0,3,0.0,--,--,--,--,--
Contrast Stuff,2022_Oct_14_1127,100,1200,1920,49,2,1.5,False,53,female,Bea,fr,480,361,0,2,1,3,0.0,--,--,--,--,--
Contrast Stuff,2022_Oct_14_1127,100,1200,1920,49,2,1.5,False,53,female,Bea,fr,481,361,0,1,0,3,0.0,--,--,--,--,--
Contrast Stuff,2022_Oct_14_1127,100,1200,1920,49,2,1.5,False,53,female,Bea,fr,482,361,0,1,0,3,0.0,--,--,--,--,--
Contrast Stuff,2022_Oct_14_1127,100,1200,1920,49,2,1.5,False,53,female,Bea,fr,483,361,0,2,1,3,0.0,--,--,--,--,--
Contrast Stuff,2022_Oct_14_1127,100,1200,1920,49,2,1.5,False,53,female,Bea,fr,484,361,0,1,0,3,0.0,--,--,--,--,--
Contrast Stuff,2022_Oct_14_1127,100,1200,1920,49,2,1.5,False,53,female,Bea,fr,485,361,0,1,0,3,0.0,--,--,--,--,--
Contrast Stuff,2022_Oct_14_1127,100,1200,1920,49,2,1.5,False,53,female,Bea,fr,486,361,0,2,0,3,0.0,--,--,--,--,--
Contrast Stuff,2022_Oct_14_1127,100,1200,1920,49,2,1.5,False,53,female,Bea,fr,487,361,0,1,1,3,0.0,--,--,--,--,--
Contrast Stuff,2022_Oct_14_1127,100,1200,1920,49,2,1.5,False,53,female,Bea,fr,488,361,0,2,1,3,0.0,--,--,--,--,--
Contrast Stuff,2022_Oct_14_1127,100,1200,1920,49,2,1.5,False,53,female,Bea,fr,489,361,0,1,1,3,0.0,--,--,--,--,--
Contrast Stuff,2022_Oct_14_1127,100,1200,1920,49,2,1.5,False,53,female,Bea,fr,490,361,0,1,0,3,0.0,--,--,--,--,--
Contrast Stuff,2022_Oct_14_1127,100,1200,1920,49,2,1.5,False,53,female,Bea,fr,491,361,0,1,1,3,0.0,--,--,--,--,--
Contrast Stuff,2022_Oct_14_1127,100,1200,1920,49,2,1.5,False,53,female,Bea,fr,492,361,0,1,1,3,0.0,--,--,--,--,--
Contrast Stuff,2022_Oct_14_1127,100,1200,1920,49,2,1.5,False,53,female,Bea,fr,493,361,0,2,0,3,0.0,--,--,--,--,--
Contrast Stuff,2022_Oct_14_1127,100,1200,1920,49,2,1.5,False,53,female,Bea,fr,494,361,0,1,0,3,0.0,--,--,--,--,--
Contrast Stuff,2022_Oct_14_1127,100,1200,1920,49,2,1.5,False,53,female,Bea,fr,495,361,0,1,1,3,0.0,--,--,--,--,--
Contrast Stuff,2022_Oct_14_1127,100,1200,1920,49,2,1.5,False,53,female,Bea,fr,496,361,0,2,1,3,0.0,--,--,--,--,--
Contrast Stuff,2022_Oct_14_1127,100,1200,1920,49,2,1.5,False,53,female,Bea,fr,497,361,0,1,1,3,0.0,--,--,--,--,--
Contrast Stuff,2022_Oct_14_1127,100,1200,1920,49,2,1.5,False,53,female,Bea,fr,498,361,0,1,1,3,0.0,--,--,--,--,--
Contrast Stuff,2022_Oct_14_1127,100,1200,1920,49,2,1.5,False,53,female,Bea,fr,499,361,0,1,0,3,0.0,--,--,--,--,--
Contrast Stuff,2022_Oct_14_1127,100,1200,1920,49,2,1.5,False,53,female,Bea,fr,500,361,0,1,0,3,0.0,--,--,--,--,--
Contrast Stuff,2022_Oct_14_1127,100,1200,1920,49,2,1.5,False,53,female,Bea,fr,501,361,0,1,1,3,0.0,--,--,--,--,--
Contrast Stuff,2022_Oct_14_1127,100,1200,1920,49,2,1.5,False,53,female,Bea,fr,502,361,0,1,1,3,0.0,--,--,--,--,--
Contrast Stuff,2022_Oct_14_1127,100,1200,1920,49,2,1.5,False,53,female,Bea,fr,503,361,0,1,1,3,0.0,--,--,--,--,--
Contrast Stuff,2022_Oct_14_1127,100,1200,1920,49,2,1.5,False,53,female,Bea,fr,504,361,0,2,1,3,0.0,--,--,--,--,--
Contrast Stuff,2022_Oct_14_1127,100,1200,1920,49,2,1.5,False,53,female,Bea,fr,505,361,0,1,0,3,0.0,--,--,--,--,--
Contrast Stuff,2022_Oct_14_1127,100,1200,1920,49,2,1.5,False,53,female,Bea,fr,506,361,0,1,0,3,0.0,--,--,--,--,--
Contrast Stuff,2022_Oct_14_1127,100,1200,1920,49,2,1.5,False,53,female,Bea,fr,507,361,0,2,0,3,0.0,--,--,--,--,--
Contrast Stuff,2022_Oct_14_1127,100,1200,1920,49,2,1.5,False,53,female,Bea,fr,508,361,0,2,0,3,0.0,--,--,--,--,--
Contrast Stuff,2022_Oct_14_1127,100,1200,1920,49,2,1.5,False,53,female,Bea,fr,509,361,0,2,0,3,0.0,--,--,--,--,--
Contrast Stuff,2022_Oct_14_1127,100,1200,1920,49,2,1.5,False,53,female,Bea,fr,510,361,0,2,0,3,0.0,--,--,--,--,--
Contrast Stuff,2022_Oct_14_1127,100,1200,1920,49,2,1.5,False,53,female,Bea,fr,511,361,0,2,1,3,0.0,--,--,--,--,--
Contrast Stuff,2022_Oct_14_1127,100,1200,1920,49,2,1.5,False,53,female,Bea,fr,512,361,0,1,0,3,0.0,--,--,--,--,--
Contrast Stuff,2022_Oct_14_1127,100,1200,1920,49,2,1.5,False,53,female,Bea,fr,513,361,0,1,1,3,0.0,--,--,--,--,--
Contrast Stuff,2022_Oct_14_1127,100,1200,1920,49,2,1.5,False,53,female,Bea,fr,514,361,0,2,1,3,0.0,--,--,--,--,--
Contrast Stuff,2022_Oct_14_1127,100,1200,1920,49,2,1.5,False,53,female,Bea,fr,515,361,0,2,0,3,0.0,--,--,--,--,--
Contrast Stuff,2022_Oct_14_1127,100,1200,1920,49,2,1.5,False,53,female,Bea,fr,516,361,0,2,0,3,0.0,--,--,--,--,--
Contrast Stuff,2022_Oct_14_1127,100,1200,1920,49,2,1.5,False,53,female,Bea,fr,517,361,0,2,0,3,0.0,--,--,--,--,--
Contrast Stuff,2022_Oct_14_1127,100,1200,1920,49,2,1.5,False,53,female,Bea,fr,518,361,0,1,0,3,0.0,--,--,--,--,--
Contrast Stuff,2022_Oct_14_1127,100,1200,1920,49,2,1.5,False,53,female,Bea,fr,519,361,0,2,1,3,0.0,--,--,--,--,--
Contrast Stuff,2022_Oct_14_1127,100,1200,1920,49,2,1.5,False,53,female,Bea,fr,520,361,0,2,1,3,0.0,--,--,--,--,--
Contrast Stuff,2022_Oct_14_1127,100,1200,1920,49,2,1.5,False,53,female,Bea,fr,521,361,0,2,0,3,0.0,--,--,--,--,--
Contrast Stuff,2022_Oct_14_1127,100,1200,1920,49,2,1.5,False,53,female,Bea,fr,522,361,0,2,0,3,0.0,--,--,--,--,--
Contrast Stuff,2022_Oct_14_1127,100,1200,1920,49,2,1.5,False,53,female,Bea,fr,523,361,0,2,0,3,0.0,--,--,--,--,--
Contrast Stuff,2022_Oct_14_1127,100,1200,1920,49,2,1.5,False,53,female,Bea,fr,524,361,0,1,1,3,0.0,--,--,--,--,--
Contrast Stuff,2022_Oct_14_1127,100,1200,1920,49,2,1.5,False,53,female,Bea,fr,525,361,0,1,1,3,0.0,--,--,--,--,--
Contrast Stuff,2022_Oct_14_1127,100,1200,1920,49,2,1.5,False,53,female,Bea,fr,526,361,0,2,0,3,0.0,--,--,--,--,--
Contrast Stuff,2022_Oct_14_1127,100,1200,1920,49,2,1.5,False,53,female,Bea,fr,527,361,0,2,1,3,0.0,--,--,--,--,--
Contrast Stuff,2022_Oct_14_1127,100,1200,1920,49,2,1.5,False,53,female,Bea,fr,528,361,0,2,0,3,0.0,--,--,--,--,--
Contrast Stuff,2022_Oct_14_1127,100,1200,1920,49,2,1.5,False,53,female,Bea,fr,529,361,0,2,1,3,0.0,--,--,--,--,--
Contrast Stuff,2022_Oct_14_1127,100,1200,1920,49,2,1.5,False,53,female,Bea,fr,530,361,0,1,1,3,0.0,--,--,--,--,--
Contrast Stuff,2022_Oct_14_1127,100,1200,1920,49,2,1.5,False,53,female,Bea,fr,531,361,0,2,1,3,0.0,--,--,--,--,--
Contrast Stuff,2022_Oct_14_1127,100,1200,1920,49,2,1.5,False,53,female,Bea,fr,532,361,0,1,0,3,0.0,--,--,--,--,--
Contrast Stuff,2022_Oct_14_1127,100,1200,1920,49,2,1.5,False,53,female,Bea,fr,533,361,0,1,1,3,0.0,--,--,--,--,--
Contrast Stuff,2022_Oct_14_1127,100,1200,1920,49,2,1.5,False,53,female,Bea,fr,534,361,0,1,1,3,0.0,--,--,--,--,--
Contrast Stuff,2022_Oct_14_1127,100,1200,1920,49,2,1.5,False,53,female,Bea,fr,535,361,0,1,0,3,0.0,--,--,--,--,--
Contrast Stuff,2022_Oct_14_1127,100,1200,1920,49,2,1.5,False,53,female,Bea,fr,536,361,0,2,1,3,0.0,--,--,--,--,--
Contrast Stuff,2022_Oct_14_1127,100,1200,1920,49,2,1.5,False,53,female,Bea,fr,537,361,0,1,0,3,0.0,--,--,--,--,--
Contrast Stuff,2022_Oct_14_1127,100,1200,1920,49,2,1.5,False,53,female,Bea,fr,538,361,0,1,1,3,0.0,--,--,--,--,--
Contrast Stuff,2022_Oct_14_1127,100,1200,1920,49,2,1.5,False,53,female,Bea,fr,539,361,0,1,1,3,0.0,--,--,--,--,--
Contrast Stuff,2022_Oct_14_1127,100,1200,1920,49,2,1.5,False,53,female,Bea,fr,540,361,0,1,1,3,0.0,--,--,--,--,--
Contrast Stuff,2022_Oct_14_1127,100,1200,1920,49,2,1.5,False,53,female,Bea,fr,541,361,0,2,1,3,0.0,--,--,--,--,--
Contrast Stuff,2022_Oct_14_1127,100,1200,1920,49,2,1.5,False,53,female,Bea,fr,542,361,0,2,1,3,0.0,--,--,--,--,--
Contrast Stuff,2022_Oct_14_1127,100,1200,1920,49,2,1.5,False,53,female,Bea,fr,543,361,0,2,1,3,0.0,--,--,--,--,--
Contrast Stuff,2022_Oct_14_1127,100,1200,1920,49,2,1.5,False,53,female,Bea,fr,544,361,0,2,1,3,0.0,--,--,--,--,--
Contrast Stuff,2022_Oct_14_1127,100,1200,1920,49,2,1.5,False,53,female,Bea,fr,545,361,0,2,0,3,0.0,--,--,--,--,--
Contrast Stuff,2022_Oct_14_1127,100,1200,1920,49,2,1.5,False,53,female,Bea,fr,546,361,0,2,0,3,0.0,--,--,--,--,--
Contrast Stuff,2022_Oct_14_1127,100,1200,1920,49,2,1.5,False,53,female,Bea,fr,547,361,0,1,0,3,0.0,--,--,--,--,--
Contrast Stuff,2022_Oct_14_1127,100,1200,1920,49,2,1.5,False,53,female,Bea,fr,548,361,0,2,0,3,0.0,--,--,--,--,--
Contrast Stuff,2022_Oct_14_1127,100,1200,1920,49,2,1.5,False,53,female,Bea,fr,549,361,0,2,0,3,0.0,--,--,--,--,--
Contrast Stuff,2022_Oct_14_1127,100,1200,1920,49,2,1.5,False,53,female,Bea,fr,550,361,0,1,0,3,0.0,--,--,--,--,--
Contrast Stuff,2022_Oct_14_1127,100,1200,1920,49,2,1.5,False,53,female,Bea,fr,551,361,0,2,1,3,0.0,--,--,--,--,--
Contrast Stuff,2022_Oct_14_1127,100,1200,1920,49,2,1.5,False,53,female,Bea,fr,552,361,0,2,0,3,0.0,--,--,--,--,--
Contrast Stuff,2022_Oct_14_1127,100,1200,1920,49,2,1.5,False,53,female,Bea,fr,553,361,0,1,1,3,0.0,--,--,--,--,--
Contrast Stuff,2022_Oct_14_1127,100,1200,1920,49,2,1.5,False,53,female,Bea,fr,554,361,0,1,0,3,0.0,--,--,--,--,--
Contrast Stuff,2022_Oct_14_1127,100,1200,1920,49,2,1.5,False,53,female,Bea,fr,555,361,0,2,1,3,0.0,--,--,--,--,--
Contrast Stuff,2022_Oct_14_1127,100,1200,1920,49,2,1.5,False,53,female,Bea,fr,556,361,0,2,1,3,0.0,--,--,--,--,--
Contrast Stuff,2022_Oct_14_1127,100,1200,1920,49,2,1.5,False,53,female,Bea,fr,557,361,0,1,0,3,0.0,--,--,--,--,--
Contrast Stuff,2022_Oct_14_1127,100,1200,1920,49,2,1.5,False,53,female,Bea,fr,558,361,0,1,0,3,0.0,--,--,--,--,--
Contrast Stuff,2022_Oct_14_1127,100,1200,1920,49,2,1.5,False,53,female,Bea,fr,559,361,0,2,0,3,0.0,--,--,--,--,--
Contrast Stuff,2022_Oct_14_1127,100,1200,1920,49,2,1.5,False,53,female,Bea,fr,560,361,0,2,1,3,0.0,--,--,--,--,--
Contrast Stuff,2022_Oct_14_1127,100,1200,1920,49,2,1.5,False,53,female,Bea,fr,561,90,0,2,0,1,0.0,--,--,--,--,--
Contrast Stuff,2022_Oct_14_1127,100,1200,1920,49,2,1.5,False,53,female,Bea,fr,562,90,0,1,1,1,0.0,--,--,--,--,--
Contrast Stuff,2022_Oct_14_1127,100,1200,1920,49,2,1.5,False,53,female,Bea,fr,563,90,0,1,0,1,0.0,--,--,--,--,--
Contrast Stuff,2022_Oct_14_1127,100,1200,1920,49,2,1.5,False,53,female,Bea,fr,564,90,0,1,0,1,0.0,--,--,--,--,--
Contrast Stuff,2022_Oct_14_1127,100,1200,1920,49,2,1.5,False,53,female,Bea,fr,565,90,0,2,0,1,0.0,--,--,--,--,--
Contrast Stuff,2022_Oct_14_1127,100,1200,1920,49,2,1.5,False,53,female,Bea,fr,566,90,0,1,0,1,0.0,--,--,--,--,--
Contrast Stuff,2022_Oct_14_1127,100,1200,1920,49,2,1.5,False,53,female,Bea,fr,567,90,0,1,0,1,0.0,--,--,--,--,--
Contrast Stuff,2022_Oct_14_1127,100,1200,1920,49,2,1.5,False,53,female,Bea,fr,568,90,0,2,1,1,0.0,--,--,--,--,--
Contrast Stuff,2022_Oct_14_1127,100,1200,1920,49,2,1.5,False,53,female,Bea,fr,569,90,0,2,1,1,0.0,--,--,--,--,--
Contrast Stuff,2022_Oct_14_1127,100,1200,1920,49,2,1.5,False,53,female,Bea,fr,570,90,0,1,0,1,0.0,--,--,--,--,--
Contrast Stuff,2022_Oct_14_1127,100,1200,1920,49,2,1.5,False,53,female,Bea,fr,571,90,0,2,0,1,0.0,--,--,--,--,--
Contrast Stuff,2022_Oct_14_1127,100,1200,1920,49,2,1.5,False,53,female,Bea,fr,572,90,0,2,0,1,0.0,--,--,--,--,--
Contrast Stuff,2022_Oct_14_1127,100,1200,1920,49,2,1.5,False,53,female,Bea,fr,573,90,0,2,1,1,0.0,--,--,--,--,--
Contrast Stuff,2022_Oct_14_1127,100,1200,1920,49,2,1.5,False,53,female,Bea,fr,574,90,0,1,1,1,0.0,--,--,--,--,--
Contrast Stuff,2022_Oct_14_1127,100,1200,1920,49,2,1.5,False,53,female,Bea,fr,575,90,0,1,0,1,0.0,--,--,--,--,--
Contrast Stuff,2022_Oct_14_1127,100,1200,1920,49,2,1.5,False,53,female,Bea,fr,576,90,0,1,0,1,0.0,--,--,--,--,--
Contrast Stuff,2022_Oct_14_1127,100,1200,1920,49,2,1.5,False,53,female,Bea,fr,577,90,0,1,0,1,0.0,--,--,--,--,--
Contrast Stuff,2022_Oct_14_1127,100,1200,1920,49,2,1.5,False,53,female,Bea,fr,578,90,0,2,1,1,0.0,--,--,--,--,--
Contrast Stuff,2022_Oct_14_1127,100,1200,1920,49,2,1.5,False,53,female,Bea,fr,579,90,0,1,1,1,0.0,--,--,--,--,--
Contrast Stuff,2022_Oct_14_1127,100,1200,1920,49,2,1.5,False,53,female,Bea,fr,580,90,0,1,1,1,0.0,--,--,--,--,--
Contrast Stuff,2022_Oct_14_1127,100,1200,1920,49,2,1.5,False,53,female,Bea,fr,581,90,0,1,1,1,0.0,--,--,--,--,--
Contrast Stuff,2022_Oct_14_1127,100,1200,1920,49,2,1.5,False,53,female,Bea,fr,582,90,0,1,1,1,0.0,--,--,--,--,--
Contrast Stuff,2022_Oct_14_1127,100,1200,1920,49,2,1.5,False,53,female,Bea,fr,583,90,0,1,1,1,0.0,--,--,--,--,--
Contrast Stuff,2022_Oct_14_1127,100,1200,1920,49,2,1.5,False,53,female,Bea,fr,584,90,0,2,0,1,0.0,--,--,--,--,--
Contrast Stuff,2022_Oct_14_1127,100,1200,1920,49,2,1.5,False,53,female,Bea,fr,585,90,0,2,0,1,0.0,--,--,--,--,--
Contrast Stuff,2022_Oct_14_1127,100,1200,1920,49,2,1.5,False,53,female,Bea,fr,586,90,0,1,1,1,0.0,--,--,--,--,--
Contrast Stuff,2022_Oct_14_1127,100,1200,1920,49,2,1.5,False,53,female,Bea,fr,587,90,0,1,0,1,0.0,--,--,--,--,--
Contrast Stuff,2022_Oct_14_1127,100,1200,1920,49,2,1.5,False,53,female,Bea,fr,588,90,0,1,0,1,0.0,--,--,--,--,--
Contrast Stuff,2022_Oct_14_1127,100,1200,1920,49,2,1.5,False,53,female,Bea,fr,589,90,0,1,1,1,0.0,--,--,--,--,--
Contrast Stuff,2022_Oct_14_1127,100,1200,1920,49,2,1.5,False,53,female,Bea,fr,590,90,0,1,0,1,0.0,--,--,--,--,--
Contrast Stuff,2022_Oct_14_1127,100,1200,1920,49,2,1.5,False,53,female,Bea,fr,591,90,0,2,0,1,0.0,--,--,--,--,--
Contrast Stuff,2022_Oct_14_1127,100,1200,1920,49,2,1.5,False,53,female,Bea,fr,592,90,0,2,0,1,0.0,--,--,--,--,--
Contrast Stuff,2022_Oct_14_1127,100,1200,1920,49,2,1.5,False,53,female,Bea,fr,593,90,0,2,1,1,0.0,--,--,--,--,--
Contrast Stuff,2022_Oct_14_1127,100,1200,1920,49,2,1.5,False,53,female,Bea,fr,594,90,0,2,1,1,0.0,--,--,--,--,--
Contrast Stuff,2022_Oct_14_1127,100,1200,1920,49,2,1.5,False,53,female,Bea,fr,595,90,0,2,1,1,0.0,--,--,--,--,--
Contrast Stuff,2022_Oct_14_1127,100,1200,1920,49,2,1.5,False,53,female,Bea,fr,596,90,0,2,1,1,0.0,--,--,--,--,--
Contrast Stuff,2022_Oct_14_1127,100,1200,1920,49,2,1.5,False,53,female,Bea,fr,597,90,0,1,1,1,0.0,--,--,--,--,--
Contrast Stuff,2022_Oct_14_1127,100,1200,1920,49,2,1.5,False,53,female,Bea,fr,598,90,0,1,1,1,0.0,--,--,--,--,--
Contrast Stuff,2022_Oct_14_1127,100,1200,1920,49,2,1.5,False,53,female,Bea,fr,599,90,0,2,0,1,0.0,--,--,--,--,--
Contrast Stuff,2022_Oct_14_1127,100,1200,1920,49,2,1.5,False,53,female,Bea,fr,600,90,0,2,1,1,0.0,--,--,--,--,--
Contrast Stuff,2022_Oct_14_1127,100,1200,1920,49,2,1.5,False,53,female,Bea,fr,601,90,0,2,1,1,0.0,--,--,--,--,--
Contrast Stuff,2022_Oct_14_1127,100,1200,1920,49,2,1.5,False,53,female,Bea,fr,602,90,0,2,0,1,0.0,--,--,--,--,--
Contrast Stuff,2022_Oct_14_1127,100,1200,1920,49,2,1.5,False,53,female,Bea,fr,603,90,0,2,0,1,0.0,--,--,--,--,--
Contrast Stuff,2022_Oct_14_1127,100,1200,1920,49,2,1.5,False,53,female,Bea,fr,604,90,0,2,0,1,0.0,--,--,--,--,--
Contrast Stuff,2022_Oct_14_1127,100,1200,1920,49,2,1.5,False,53,female,Bea,fr,605,90,0,1,1,1,0.0,--,--,--,--,--
Contrast Stuff,2022_Oct_14_1127,100,1200,1920,49,2,1.5,False,53,female,Bea,fr,606,90,0,1,0,1,0.0,--,--,--,--,--
Contrast Stuff,2022_Oct_14_1127,100,1200,1920,49,2,1.5,False,53,female,Bea,fr,607,90,0,1,1,1,0.0,--,--,--,--,--
Contrast Stuff,2022_Oct_14_1127,100,1200,1920,49,2,1.5,False,53,female,Bea,fr,608,90,0,2,1,1,0.0,--,--,--,--,--
Contrast Stuff,2022_Oct_14_1127,100,1200,1920,49,2,1.5,False,53,female,Bea,fr,609,90,0,2,0,1,0.0,--,--,--,--,--
Contrast Stuff,2022_Oct_14_1127,100,1200,1920,49,2,1.5,False,53,female,Bea,fr,610,90,0,1,1,1,0.0,--,--,--,--,--
Contrast Stuff,2022_Oct_14_1127,100,1200,1920,49,2,1.5,False,53,female,Bea,fr,611,90,0,1,1,1,0.0,--,--,--,--,--
Contrast Stuff,2022_Oct_14_1127,100,1200,1920,49,2,1.5,False,53,female,Bea,fr,612,90,0,1,1,1,0.0,--,--,--,--,--
Contrast Stuff,2022_Oct_14_1127,100,1200,1920,49,2,1.5,False,53,female,Bea,fr,613,90,0,2,0,1,0.0,--,--,--,--,--
Contrast Stuff,2022_Oct_14_1127,100,1200,1920,49,2,1.5,False,53,female,Bea,fr,614,90,0,2,1,1,0.0,--,--,--,--,--
Contrast Stuff,2022_Oct_14_1127,100,1200,1920,49,2,1.5,False,53,female,Bea,fr,615,90,0,2,0,1,0.0,--,--,--,--,--
Contrast Stuff,2022_Oct_14_1127,100,1200,1920,49,2,1.5,False,53,female,Bea,fr,616,90,0,1,0,1,0.0,--,--,--,--,--
Contrast Stuff,2022_Oct_14_1127,100,1200,1920,49,2,1.5,False,53,female,Bea,fr,617,90,0,2,1,1,0.0,--,--,--,--,--
Contrast Stuff,2022_Oct_14_1127,100,1200,1920,49,2,1.5,False,53,female,Bea,fr,618,90,0,1,0,1,0.0,--,--,--,--,--
Contrast Stuff,2022_Oct_14_1127,100,1200,1920,49,2,1.5,False,53,female,Bea,fr,619,90,0,1,1,1,0.0,--,--,--,--,--
Contrast Stuff,2022_Oct_14_1127,100,1200,1920,49,2,1.5,False,53,female,Bea,fr,620,90,0,1,1,1,0.0,--,--,--,--,--
Contrast Stuff,2022_Oct_14_1127,100,1200,1920,49,2,1.5,False,53,female,Bea,fr,621,90,0,2,1,1,0.0,--,--,--,--,--
Contrast Stuff,2022_Oct_14_1127,100,1200,1920,49,2,1.5,False,53,female,Bea,fr,622,90,0,1,0,1,0.0,--,--,--,--,--
Contrast Stuff,2022_Oct_14_1127,100,1200,1920,49,2,1.5,False,53,female,Bea,fr,623,90,0,2,1,1,0.0,--,--,--,--,--
Contrast Stuff,2022_Oct_14_1127,100,1200,1920,49,2,1.5,False,53,female,Bea,fr,624,90,0,1,0,1,0.0,--,--,--,--,--
Contrast Stuff,2022_Oct_14_1127,100,1200,1920,49,2,1.5,False,53,female,Bea,fr,625,90,0,2,1,1,0.0,--,--,--,--,--
Contrast Stuff,2022_Oct_14_1127,100,1200,1920,49,2,1.5,False,53,female,Bea,fr,626,90,0,2,0,1,0.0,--,--,--,--,--
Contrast Stuff,2022_Oct_14_1127,100,1200,1920,49,2,1.5,False,53,female,Bea,fr,627,90,0,2,0,1,0.0,--,--,--,--,--
Contrast Stuff,2022_Oct_14_1127,100,1200,1920,49,2,1.5,False,53,female,Bea,fr,628,90,0,2,1,1,0.0,--,--,--,--,--
Contrast Stuff,2022_Oct_14_1127,100,1200,1920,49,2,1.5,False,53,female,Bea,fr,629,90,0,1,1,1,0.0,--,--,--,--,--
Contrast Stuff,2022_Oct_14_1127,100,1200,1920,49,2,1.5,False,53,female,Bea,fr,630,90,0,1,0,1,0.0,--,--,--,--,--
Contrast Stuff,2022_Oct_14_1127,100,1200,1920,49,2,1.5,False,53,female,Bea,fr,631,90,0,2,0,1,0.0,--,--,--,--,--
Contrast Stuff,2022_Oct_14_1127,100,1200,1920,49,2,1.5,False,53,female,Bea,fr,632,90,0,1,0,1,0.0,--,--,--,--,--
Contrast Stuff,2022_Oct_14_1127,100,1200,1920,49,2,1.5,False,53,female,Bea,fr,633,90,0,2,1,1,0.0,--,--,--,--,--
Contrast Stuff,2022_Oct_14_1127,100,1200,1920,49,2,1.5,False,53,female,Bea,fr,634,90,0,1,0,1,0.0,--,--,--,--,--
Contrast Stuff,2022_Oct_14_1127,100,1200,1920,49,2,1.5,False,53,female,Bea,fr,635,90,0,1,1,1,0.0,--,--,--,--,--
Contrast Stuff,2022_Oct_14_1127,100,1200,1920,49,2,1.5,False,53,female,Bea,fr,636,90,0,1,0,1,0.0,--,--,--,--,--
Contrast Stuff,2022_Oct_14_1127,100,1200,1920,49,2,1.5,False,53,female,Bea,fr,637,90,0,2,0,1,0.0,--,--,--,--,--
Contrast Stuff,2022_Oct_14_1127,100,1200,1920,49,2,1.5,False,53,female,Bea,fr,638,90,0,2,1,1,0.0,--,--,--,--,--
Contrast Stuff,2022_Oct_14_1127,100,1200,1920,49,2,1.5,False,53,female,Bea,fr,639,90,0,2,0,1,0.0,--,--,--,--,--
Contrast Stuff,2022_Oct_14_1127,100,1200,1920,49,2,1.5,False,53,female,Bea,fr,640,90,0,2,1,1,0.0,--,--,--,--,--
Contrast Stuff,2022_Oct_14_1127,100,1200,1920,49,2,1.5,False,53,female,Bea,fr,641,0,0,2,0,2,0.0,--,--,--,--,--
Contrast Stuff,2022_Oct_14_1127,100,1200,1920,49,2,1.5,False,53,female,Bea,fr,642,0,0,2,1,2,0.0,--,--,--,--,--
Contrast Stuff,2022_Oct_14_1127,100,1200,1920,49,2,1.5,False,53,female,Bea,fr,643,0,0,2,0,2,0.0,--,--,--,--,--
Contrast Stuff,2022_Oct_14_1127,100,1200,1920,49,2,1.5,False,53,female,Bea,fr,644,0,0,1,0,2,0.0,--,--,--,--,--
Contrast Stuff,2022_Oct_14_1127,100,1200,1920,49,2,1.5,False,53,female,Bea,fr,645,0,0,1,0,2,0.0,--,--,--,--,--
Contrast Stuff,2022_Oct_14_1127,100,1200,1920,49,2,1.5,False,53,female,Bea,fr,646,0,0,1,1,2,0.0,--,--,--,--,--
Contrast Stuff,2022_Oct_14_1127,100,1200,1920,49,2,1.5,False,53,female,Bea,fr,647,0,0,1,1,2,0.0,--,--,--,--,--
Contrast Stuff,2022_Oct_14_1127,100,1200,1920,49,2,1.5,False,53,female,Bea,fr,648,0,0,1,0,2,0.0,--,--,--,--,--
Contrast Stuff,2022_Oct_14_1127,100,1200,1920,49,2,1.5,False,53,female,Bea,fr,649,0,0,1,1,2,0.0,--,--,--,--,--
Contrast Stuff,2022_Oct_14_1127,100,1200,1920,49,2,1.5,False,53,female,Bea,fr,650,0,0,2,1,2,0.0,--,--,--,--,--
Contrast Stuff,2022_Oct_14_1127,100,1200,1920,49,2,1.5,False,53,female,Bea,fr,651,0,0,1,0,2,0.0,--,--,--,--,--
Contrast Stuff,2022_Oct_14_1127,100,1200,1920,49,2,1.5,False,53,female,Bea,fr,652,0,0,1,0,2,0.0,--,--,--,--,--
Contrast Stuff,2022_Oct_14_1127,100,1200,1920,49,2,1.5,False,53,female,Bea,fr,653,0,0,2,0,2,0.0,--,--,--,--,--
Contrast Stuff,2022_Oct_14_1127,100,1200,1920,49,2,1.5,False,53,female,Bea,fr,654,0,0,2,0,2,0.0,--,--,--,--,--
Contrast Stuff,2022_Oct_14_1127,100,1200,1920,49,2,1.5,False,53,female,Bea,fr,655,0,0,1,1,2,0.0,--,--,--,--,--
Contrast Stuff,2022_Oct_14_1127,100,1200,1920,49,2,1.5,False,53,female,Bea,fr,656,0,0,1,1,2,0.0,--,--,--,--,--
Contrast Stuff,2022_Oct_14_1127,100,1200,1920,49,2,1.5,False,53,female,Bea,fr,657,0,0,1,0,2,0.0,--,--,--,--,--
Contrast Stuff,2022_Oct_14_1127,100,1200,1920,49,2,1.5,False,53,female,Bea,fr,658,0,0,1,0,2,0.0,--,--,--,--,--
Contrast Stuff,2022_Oct_14_1127,100,1200,1920,49,2,1.5,False,53,female,Bea,fr,659,0,0,2,0,2,0.0,--,--,--,--,--
Contrast Stuff,2022_Oct_14_1127,100,1200,1920,49,2,1.5,False,53,female,Bea,fr,660,0,0,1,0,2,0.0,--,--,--,--,--
Contrast Stuff,2022_Oct_14_1127,100,1200,1920,49,2,1.5,False,53,female,Bea,fr,661,0,0,1,1,2,0.0,--,--,--,--,--
Contrast Stuff,2022_Oct_14_1127,100,1200,1920,49,2,1.5,False,53,female,Bea,fr,662,0,0,2,1,2,0.0,--,--,--,--,--
Contrast Stuff,2022_Oct_14_1127,100,1200,1920,49,2,1.5,False,53,female,Bea,fr,663,0,0,2,1,2,0.0,--,--,--,--,--
Contrast Stuff,2022_Oct_14_1127,100,1200,1920,49,2,1.5,False,53,female,Bea,fr,664,0,0,2,1,2,0.0,--,--,--,--,--
Contrast Stuff,2022_Oct_14_1127,100,1200,1920,49,2,1.5,False,53,female,Bea,fr,665,0,0,2,0,2,0.0,--,--,--,--,--
Contrast Stuff,2022_Oct_14_1127,100,1200,1920,49,2,1.5,False,53,female,Bea,fr,666,0,0,2,1,2,0.0,--,--,--,--,--
Contrast Stuff,2022_Oct_14_1127,100,1200,1920,49,2,1.5,False,53,female,Bea,fr,667,0,0,2,1,2,0.0,--,--,--,--,--
Contrast Stuff,2022_Oct_14_1127,100,1200,1920,49,2,1.5,False,53,female,Bea,fr,668,0,0,2,0,2,0.0,--,--,--,--,--
Contrast Stuff,2022_Oct_14_1127,100,1200,1920,49,2,1.5,False,53,female,Bea,fr,669,0,0,2,1,2,0.0,--,--,--,--,--
Contrast Stuff,2022_Oct_14_1127,100,1200,1920,49,2,1.5,False,53,female,Bea,fr,670,0,0,1,1,2,0.0,--,--,--,--,--
Contrast Stuff,2022_Oct_14_1127,100,1200,1920,49,2,1.5,False,53,female,Bea,fr,671,0,0,2,1,2,0.0,--,--,--,--,--
Contrast Stuff,2022_Oct_14_1127,100,1200,1920,49,2,1.5,False,53,female,Bea,fr,672,0,0,1,0,2,0.0,--,--,--,--,--
Contrast Stuff,2022_Oct_14_1127,100,1200,1920,49,2,1.5,False,53,female,Bea,fr,673,0,0,1,0,2,0.0,--,--,--,--,--
Contrast Stuff,2022_Oct_14_1127,100,1200,1920,49,2,1.5,False,53,female,Bea,fr,674,0,0,1,1,2,0.0,--,--,--,--,--
Contrast Stuff,2022_Oct_14_1127,100,1200,1920,49,2,1.5,False,53,female,Bea,fr,675,0,0,2,1,2,0.0,--,--,--,--,--
Contrast Stuff,2022_Oct_14_1127,100,1200,1920,49,2,1.5,False,53,female,Bea,fr,676,0,0,1,0,2,0.0,--,--,--,--,--
Contrast Stuff,2022_Oct_14_1127,100,1200,1920,49,2,1.5,False,53,female,Bea,fr,677,0,0,2,0,2,0.0,--,--,--,--,--
Contrast Stuff,2022_Oct_14_1127,100,1200,1920,49,2,1.5,False,53,female,Bea,fr,678,0,0,2,1,2,0.0,--,--,--,--,--
Contrast Stuff,2022_Oct_14_1127,100,1200,1920,49,2,1.5,False,53,female,Bea,fr,679,0,0,1,1,2,0.0,--,--,--,--,--
Contrast Stuff,2022_Oct_14_1127,100,1200,1920,49,2,1.5,False,53,female,Bea,fr,680,0,0,2,1,2,0.0,--,--,--,--,--
Contrast Stuff,2022_Oct_14_1127,100,1200,1920,49,2,1.5,False,53,female,Bea,fr,681,0,0,1,1,2,0.0,--,--,--,--,--
Contrast Stuff,2022_Oct_14_1127,100,1200,1920,49,2,1.5,False,53,female,Bea,fr,682,0,0,2,1,2,0.0,--,--,--,--,--
Contrast Stuff,2022_Oct_14_1127,100,1200,1920,49,2,1.5,False,53,female,Bea,fr,683,0,0,2,1,2,0.0,--,--,--,--,--
Contrast Stuff,2022_Oct_14_1127,100,1200,1920,49,2,1.5,False,53,female,Bea,fr,684,0,0,1,0,2,0.0,--,--,--,--,--
Contrast Stuff,2022_Oct_14_1127,100,1200,1920,49,2,1.5,False,53,female,Bea,fr,685,0,0,1,0,2,0.0,--,--,--,--,--
Contrast Stuff,2022_Oct_14_1127,100,1200,1920,49,2,1.5,False,53,female,Bea,fr,686,0,0,1,1,2,0.0,--,--,--,--,--
Contrast Stuff,2022_Oct_14_1127,100,1200,1920,49,2,1.5,False,53,female,Bea,fr,687,0,0,1,1,2,0.0,--,--,--,--,--
Contrast Stuff,2022_Oct_14_1127,100,1200,1920,49,2,1.5,False,53,female,Bea,fr,688,0,0,2,0,2,0.0,--,--,--,--,--
Contrast Stuff,2022_Oct_14_1127,100,1200,1920,49,2,1.5,False,53,female,Bea,fr,689,0,0,1,1,2,0.0,--,--,--,--,--
Contrast Stuff,2022_Oct_14_1127,100,1200,1920,49,2,1.5,False,53,female,Bea,fr,690,0,0,2,1,2,0.0,--,--,--,--,--
Contrast Stuff,2022_Oct_14_1127,100,1200,1920,49,2,1.5,False,53,female,Bea,fr,691,0,0,1,1,2,0.0,--,--,--,--,--
Contrast Stuff,2022_Oct_14_1127,100,1200,1920,49,2,1.5,False,53,female,Bea,fr,692,0,0,1,0,2,0.0,--,--,--,--,--
Contrast Stuff,2022_Oct_14_1127,100,1200,1920,49,2,1.5,False,53,female,Bea,fr,693,0,0,2,0,2,0.0,--,--,--,--,--
Contrast Stuff,2022_Oct_14_1127,100,1200,1920,49,2,1.5,False,53,female,Bea,fr,694,0,0,2,1,2,0.0,--,--,--,--,--
Contrast Stuff,2022_Oct_14_1127,100,1200,1920,49,2,1.5,False,53,female,Bea,fr,695,0,0,1,1,2,0.0,--,--,--,--,--
Contrast Stuff,2022_Oct_14_1127,100,1200,1920,49,2,1.5,False,53,female,Bea,fr,696,0,0,1,1,2,0.0,--,--,--,--,--
Contrast Stuff,2022_Oct_14_1127,100,1200,1920,49,2,1.5,False,53,female,Bea,fr,697,0,0,2,1,2,0.0,--,--,--,--,--
Contrast Stuff,2022_Oct_14_1127,100,1200,1920,49,2,1.5,False,53,female,Bea,fr,698,0,0,1,0,2,0.0,--,--,--,--,--
Contrast Stuff,2022_Oct_14_1127,100,1200,1920,49,2,1.5,False,53,female,Bea,fr,699,0,0,1,0,2,0.0,--,--,--,--,--
Contrast Stuff,2022_Oct_14_1127,100,1200,1920,49,2,1.5,False,53,female,Bea,fr,700,0,0,2,0,2,0.0,--,--,--,--,--
Contrast Stuff,2022_Oct_14_1127,100,1200,1920,49,2,1.5,False,53,female,Bea,fr,701,0,0,2,0,2,0.0,--,--,--,--,--
Contrast Stuff,2022_Oct_14_1127,100,1200,1920,49,2,1.5,False,53,female,Bea,fr,702,0,0,2,0,2,0.0,--,--,--,--,--
Contrast Stuff,2022_Oct_14_1127,100,1200,1920,49,2,1.5,False,53,female,Bea,fr,703,0,0,2,0,2,0.0,--,--,--,--,--
Contrast Stuff,2022_Oct_14_1127,100,1200,1920,49,2,1.5,False,53,female,Bea,fr,704,0,0,2,0,2,0.0,--,--,--,--,--
Contrast Stuff,2022_Oct_14_1127,100,1200,1920,49,2,1.5,False,53,female,Bea,fr,705,0,0,1,1,2,0.0,--,--,--,--,--
Contrast Stuff,2022_Oct_14_1127,100,1200,1920,49,2,1.5,False,53,female,Bea,fr,706,0,0,1,1,2,0.0,--,--,--,--,--
Contrast Stuff,2022_Oct_14_1127,100,1200,1920,49,2,1.5,False,53,female,Bea,fr,707,0,0,2,1,2,0.0,--,--,--,--,--
Contrast Stuff,2022_Oct_14_1127,100,1200,1920,49,2,1.5,False,53,female,Bea,fr,708,0,0,1,1,2,0.0,--,--,--,--,--
Contrast Stuff,2022_Oct_14_1127,100,1200,1920,49,2,1.5,False,53,female,Bea,fr,709,0,0,2,0,2,0.0,--,--,--,--,--
Contrast Stuff,2022_Oct_14_1127,100,1200,1920,49,2,1.5,False,53,female,Bea,fr,710,0,0,1,0,2,0.0,--,--,--,--,--
Contrast Stuff,2022_Oct_14_1127,100,1200,1920,49,2,1.5,False,53,female,Bea,fr,711,0,0,2,0,2,0.0,--,--,--,--,--
Contrast Stuff,2022_Oct_14_1127,100,1200,1920,49,2,1.5,False,53,female,Bea,fr,712,0,0,1,0,2,0.0,--,--,--,--,--
Contrast Stuff,2022_Oct_14_1127,100,1200,1920,49,2,1.5,False,53,female,Bea,fr,713,0,0,1,0,2,0.0,--,--,--,--,--
Contrast Stuff,2022_Oct_14_1127,100,1200,1920,49,2,1.5,False,53,female,Bea,fr,714,0,0,1,0,2,0.0,--,--,--,--,--
Contrast Stuff,2022_Oct_14_1127,100,1200,1920,49,2,1.5,False,53,female,Bea,fr,715,0,0,2,1,2,0.0,--,--,--,--,--
Contrast Stuff,2022_Oct_14_1127,100,1200,1920,49,2,1.5,False,53,female,Bea,fr,716,0,0,1,1,2,0.0,--,--,--,--,--
Contrast Stuff,2022_Oct_14_1127,100,1200,1920,49,2,1.5,False,53,female,Bea,fr,717,0,0,2,0,2,0.0,--,--,--,--,--
Contrast Stuff,2022_Oct_14_1127,100,1200,1920,49,2,1.5,False,53,female,Bea,fr,718,0,0,2,0,2,0.0,--,--,--,--,--
Contrast Stuff,2022_Oct_14_1127,100,1200,1920,49,2,1.5,False,53,female,Bea,fr,719,0,0,2,1,2,0.0,--,--,--,--,--
Contrast Stuff,2022_Oct_14_1127,100,1200,1920,49,2,1.5,False,53,female,Bea,fr,720,0,0,2,0,2,0.0,--,--,--,--,--
