exp_name,date,refreshrate(hz),screenresolutionvert(pixels),screenresolutionhori(pixels),screenwidth(cm),eccentricity,Stim_size,left-handed,age,gender,participant,language,TrialNumber,bgori,temp,staircase,targetloc,cond,ran,order,resp,rt,acc,contrast
Contrast Stuff,2022_Oct_14_1328,100,1200,1920,49,2,1.5,True,54,male,Ph,fr,1,0,0,2,1,2,1.0,0.0,0.0,1.9778136,0.0,0.011410550312757525
Contrast Stuff,2022_Oct_14_1328,100,1200,1920,49,2,1.5,True,54,male,Ph,fr,2,0,0,2,0,2,1.0,1.0,1.0,5.355408,0.0,0.03193728503137525
Contrast Stuff,2022_Oct_14_1328,100,1200,1920,49,2,1.5,True,54,male,Ph,fr,3,0,0,2,1,2,1.0,2.0,0.0,2.2579668,0.0,0.056699817612524815
Contrast Stuff,2022_Oct_14_1328,100,1200,1920,49,2,1.5,True,54,male,Ph,fr,4,0,0,1,0,2,1.0,3.0,0.0,2.4245305,1.0,0.011410550312757525
Contrast Stuff,2022_Oct_14_1328,100,1200,1920,49,2,1.5,True,54,male,Ph,fr,5,0,0,1,1,2,1.0,4.0,0.0,1.2414556,0.0,0.006956757690467928
Contrast Stuff,2022_Oct_14_1328,100,1200,1920,49,2,1.5,True,54,male,Ph,fr,6,0,0,2,0,2,1.0,5.0,1.0,1.43126,0.0,0.08258581217385243
Contrast Stuff,2022_Oct_14_1328,100,1200,1920,49,2,1.5,True,54,male,Ph,fr,7,0,0,2,0,2,1.0,6.0,0.0,1.2213336,1.0,0.10682017746080334
Contrast Stuff,2022_Oct_14_1328,100,1200,1920,49,2,1.5,True,54,male,Ph,fr,8,0,0,1,1,2,1.0,7.0,0.0,1.3328229,0.0,0.019860687103523404
Contrast Stuff,2022_Oct_14_1328,100,1200,1920,49,2,1.5,True,54,male,Ph,fr,9,0,0,2,0,2,1.0,8.0,1.0,1.2973574,0.0,0.10267419772502775
Contrast Stuff,2022_Oct_14_1328,100,1200,1920,49,2,1.5,True,54,male,Ph,fr,10,0,0,2,1,2,1.0,9.0,0.0,1.6497453,0.0,0.12269453383446513
Contrast Stuff,2022_Oct_14_1328,100,1200,1920,49,2,1.5,True,54,male,Ph,fr,11,0,0,1,1,2,1.0,10.0,0.0,1.2529277,0.0,0.04297717079888272
Contrast Stuff,2022_Oct_14_1328,100,1200,1920,49,2,1.5,True,54,male,Ph,fr,12,0,0,2,1,2,1.0,11.0,1.0,1.5950127,1.0,0.14374512445218396
Contrast Stuff,2022_Oct_14_1328,100,1200,1920,49,2,1.5,True,54,male,Ph,fr,13,0,0,1,0,2,1.0,12.0,0.0,1.215313,1.0,0.06911010412134794
Contrast Stuff,2022_Oct_14_1328,100,1200,1920,49,2,1.5,True,54,male,Ph,fr,14,0,0,1,1,2,1.0,13.0,1.0,0.9146523,1.0,0.06259816529949601
Contrast Stuff,2022_Oct_14_1328,100,1200,1920,49,2,1.5,True,54,male,Ph,fr,15,0,0,2,0,2,1.0,14.0,0.0,0.7128214,1.0,0.13816598774541355
Contrast Stuff,2022_Oct_14_1328,100,1200,1920,49,2,1.5,True,54,male,Ph,fr,16,0,0,2,0,2,1.0,15.0,1.0,0.7789721,0.0,0.1328033924101259
Contrast Stuff,2022_Oct_14_1328,100,1200,1920,49,2,1.5,True,54,male,Ph,fr,17,0,0,2,1,2,1.0,16.0,1.0,1.288064,1.0,0.14954954646180463
Contrast Stuff,2022_Oct_14_1328,100,1200,1920,49,2,1.5,True,54,male,Ph,fr,18,0,0,1,1,2,1.0,17.0,1.0,1.0473179,1.0,0.056699817612524815
Contrast Stuff,2022_Oct_14_1328,100,1200,1920,49,2,1.5,True,54,male,Ph,fr,19,0,0,1,0,2,1.0,18.0,0.0,0.8787721,1.0,0.05238388541298659
Contrast Stuff,2022_Oct_14_1328,100,1200,1920,49,2,1.5,True,54,male,Ph,fr,20,0,0,2,0,2,1.0,19.0,1.0,0.8627433,0.0,0.14661861467057924
Contrast Stuff,2022_Oct_14_1328,100,1200,1920,49,2,1.5,True,54,male,Ph,fr,21,0,0,1,1,2,1.0,20.0,1.0,0.8730286,1.0,0.04839647756388463
Contrast Stuff,2022_Oct_14_1328,100,1200,1920,49,2,1.5,True,54,male,Ph,fr,22,0,0,1,0,2,1.0,21.0,1.0,0.9708703,0.0,0.039705792457535485
Contrast Stuff,2022_Oct_14_1328,100,1200,1920,49,2,1.5,True,54,male,Ph,fr,23,0,0,1,1,2,1.0,22.0,0.0,0.7166546,0.0,0.053431048458755306
Contrast Stuff,2022_Oct_14_1328,100,1200,1920,49,2,1.5,True,54,male,Ph,fr,24,0,0,2,0,2,1.0,23.0,1.0,1.0825301,0.0,0.1618710017702884
Contrast Stuff,2022_Oct_14_1328,100,1200,1920,49,2,1.5,True,54,male,Ph,fr,25,0,0,1,1,2,1.0,24.0,0.0,0.761772,0.0,0.0651258765509975
Contrast Stuff,2022_Oct_14_1328,100,1200,1920,49,2,1.5,True,54,male,Ph,fr,26,0,0,1,1,2,1.0,25.0,1.0,1.086162,1.0,0.08258581217385243
Contrast Stuff,2022_Oct_14_1328,100,1200,1920,49,2,1.5,True,54,male,Ph,fr,27,0,0,2,0,2,1.0,26.0,0.0,1.1903456,1.0,0.17871005856239663
Contrast Stuff,2022_Oct_14_1328,100,1200,1920,49,2,1.5,True,54,male,Ph,fr,28,0,0,1,1,2,1.0,27.0,1.0,0.9441606,1.0,0.0778247041713946
Contrast Stuff,2022_Oct_14_1328,100,1200,1920,49,2,1.5,True,54,male,Ph,fr,29,0,0,2,0,2,1.0,28.0,0.0,0.740306,1.0,0.17177383828087872
Contrast Stuff,2022_Oct_14_1328,100,1200,1920,49,2,1.5,True,54,male,Ph,fr,30,0,0,1,1,2,1.0,29.0,1.0,0.9050274,1.0,0.07333807611669522
Contrast Stuff,2022_Oct_14_1328,100,1200,1920,49,2,1.5,True,54,male,Ph,fr,31,0,0,1,0,2,1.0,30.0,0.0,0.7262194,1.0,0.06911010412134794
Contrast Stuff,2022_Oct_14_1328,100,1200,1920,49,2,1.5,True,54,male,Ph,fr,32,0,0,1,0,2,1.0,31.0,1.0,0.7716727,0.0,0.0651258765509975
Contrast Stuff,2022_Oct_14_1328,100,1200,1920,49,2,1.5,True,54,male,Ph,fr,33,0,0,1,0,2,1.0,32.0,0.0,0.8733532,1.0,0.0778247041713946
Contrast Stuff,2022_Oct_14_1328,100,1200,1920,49,2,1.5,True,54,male,Ph,fr,34,0,0,1,1,2,1.0,33.0,1.0,0.950305,1.0,0.07480411710528782
Contrast Stuff,2022_Oct_14_1328,100,1200,1920,49,2,1.5,True,54,male,Ph,fr,35,0,0,1,1,2,1.0,34.0,1.0,0.7039977,1.0,0.07333807611669522
Contrast Stuff,2022_Oct_14_1328,100,1200,1920,49,2,1.5,True,54,male,Ph,fr,36,0,0,2,0,2,1.0,35.0,1.0,0.8411181,0.0,0.16840734593483328
Contrast Stuff,2022_Oct_14_1328,100,1200,1920,49,2,1.5,True,54,male,Ph,fr,37,0,0,2,0,2,1.0,36.0,0.0,3.9820662,1.0,0.18592636312377486
Contrast Stuff,2022_Oct_14_1328,100,1200,1920,49,2,1.5,True,54,male,Ph,fr,38,0,0,2,1,2,1.0,37.0,1.0,0.9225512,1.0,0.18228250393864812
Contrast Stuff,2022_Oct_14_1328,100,1200,1920,49,2,1.5,True,54,male,Ph,fr,39,0,0,2,0,2,1.0,38.0,0.0,0.8654885,1.0,0.17871005856239663
Contrast Stuff,2022_Oct_14_1328,100,1200,1920,49,2,1.5,True,54,male,Ph,fr,40,0,0,1,1,2,1.0,39.0,1.0,0.5138236,1.0,0.07049162720911727
Contrast Stuff,2022_Oct_14_1328,100,1200,1920,49,2,1.5,True,54,male,Ph,fr,41,0,0,1,0,2,1.0,40.0,0.0,0.6280576,1.0,0.06775565667529103
Contrast Stuff,2022_Oct_14_1328,100,1200,1920,49,2,1.5,True,54,male,Ph,fr,42,0,0,1,1,2,1.0,41.0,1.0,0.8658779,1.0,0.06384951358948564
Contrast Stuff,2022_Oct_14_1328,100,1200,1920,49,2,1.5,True,54,male,Ph,fr,43,0,0,1,0,2,1.0,42.0,1.0,0.854793,0.0,0.06137134143349693
Contrast Stuff,2022_Oct_14_1328,100,1200,1920,49,2,1.5,True,54,male,Ph,fr,44,0,0,1,0,2,1.0,43.0,0.0,0.6477552,1.0,0.07049162720911727
Contrast Stuff,2022_Oct_14_1328,100,1200,1920,49,2,1.5,True,54,male,Ph,fr,45,0,0,1,1,2,1.0,44.0,1.0,0.7801755,1.0,0.06911010412134794
Contrast Stuff,2022_Oct_14_1328,100,1200,1920,49,2,1.5,True,54,male,Ph,fr,46,0,0,2,0,2,1.0,45.0,0.0,0.7003838,1.0,0.17520762739864815
Contrast Stuff,2022_Oct_14_1328,100,1200,1920,49,2,1.5,True,54,male,Ph,fr,47,0,0,1,0,2,1.0,46.0,0.0,0.7935116,1.0,0.06775565667529103
Contrast Stuff,2022_Oct_14_1328,100,1200,1920,49,2,1.5,True,54,male,Ph,fr,48,0,0,2,1,2,1.0,47.0,1.0,0.6662766,1.0,0.17177383828087872
Contrast Stuff,2022_Oct_14_1328,100,1200,1920,49,2,1.5,True,54,male,Ph,fr,49,0,0,1,0,2,1.0,48.0,0.0,0.7635148,1.0,0.06642775423169728
Contrast Stuff,2022_Oct_14_1328,100,1200,1920,49,2,1.5,True,54,male,Ph,fr,50,0,0,2,1,2,1.0,49.0,1.0,0.789508,1.0,0.16840734593483328
Contrast Stuff,2022_Oct_14_1328,100,1200,1920,49,2,1.5,True,54,male,Ph,fr,51,0,0,2,1,2,1.0,50.0,1.0,0.7231582,1.0,0.1618710017702884
Contrast Stuff,2022_Oct_14_1328,100,1200,1920,49,2,1.5,True,54,male,Ph,fr,52,0,0,1,1,2,1.0,51.0,1.0,0.5587294,1.0,0.06384951358948564
Contrast Stuff,2022_Oct_14_1328,100,1200,1920,49,2,1.5,True,54,male,Ph,fr,53,0,0,2,1,2,1.0,52.0,1.0,0.7262971,1.0,0.15869858917265317
Contrast Stuff,2022_Oct_14_1328,100,1200,1920,49,2,1.5,True,54,male,Ph,fr,54,0,0,2,1,2,1.0,53.0,1.0,0.5440658,1.0,0.1555883507852197
Contrast Stuff,2022_Oct_14_1328,100,1200,1920,49,2,1.5,True,54,male,Ph,fr,55,0,0,1,0,2,1.0,54.0,1.0,1.4125676,0.0,0.06137134143349693
Contrast Stuff,2022_Oct_14_1328,100,1200,1920,49,2,1.5,True,54,male,Ph,fr,56,0,0,2,1,2,1.0,55.0,1.0,0.9610621,1.0,0.1555883507852197
Contrast Stuff,2022_Oct_14_1328,100,1200,1920,49,2,1.5,True,54,male,Ph,fr,57,0,0,2,1,2,1.0,56.0,1.0,0.6616431,1.0,0.15253906809296364
Contrast Stuff,2022_Oct_14_1328,100,1200,1920,49,2,1.5,True,54,male,Ph,fr,58,0,0,1,0,2,1.0,57.0,1.0,0.6444123,0.0,0.06911010412134794
Contrast Stuff,2022_Oct_14_1328,100,1200,1920,49,2,1.5,True,54,male,Ph,fr,59,0,0,2,1,2,1.0,58.0,1.0,0.8069461,1.0,0.15253906809296364
Contrast Stuff,2022_Oct_14_1328,100,1200,1920,49,2,1.5,True,54,male,Ph,fr,60,0,0,2,1,2,1.0,59.0,1.0,0.8411862,1.0,0.14954954646180463
Contrast Stuff,2022_Oct_14_1328,100,1200,1920,49,2,1.5,True,54,male,Ph,fr,61,0,0,1,0,2,1.0,60.0,1.0,0.8446172,0.0,0.07190076718541984
Contrast Stuff,2022_Oct_14_1328,100,1200,1920,49,2,1.5,True,54,male,Ph,fr,62,0,0,2,0,2,1.0,61.0,0.0,0.8553886,1.0,0.14954954646180463
Contrast Stuff,2022_Oct_14_1328,100,1200,1920,49,2,1.5,True,54,male,Ph,fr,63,0,0,2,1,2,1.0,62.0,1.0,0.7612212,1.0,0.14661861467057924
Contrast Stuff,2022_Oct_14_1328,100,1200,1920,49,2,1.5,True,54,male,Ph,fr,64,0,0,2,1,2,1.0,63.0,1.0,0.7113441,1.0,0.14661861467057924
Contrast Stuff,2022_Oct_14_1328,100,1200,1920,49,2,1.5,True,54,male,Ph,fr,65,0,0,2,1,2,1.0,64.0,1.0,0.6431576,1.0,0.14374512445218396
Contrast Stuff,2022_Oct_14_1328,100,1200,1920,49,2,1.5,True,54,male,Ph,fr,66,0,0,2,0,2,1.0,65.0,0.0,0.8796395,1.0,0.14092795004371353
Contrast Stuff,2022_Oct_14_1328,100,1200,1920,49,2,1.5,True,54,male,Ph,fr,67,0,0,2,0,2,1.0,66.0,0.0,1.6994565,1.0,0.13816598774541355
Contrast Stuff,2022_Oct_14_1328,100,1200,1920,49,2,1.5,True,54,male,Ph,fr,68,0,0,1,0,2,1.0,67.0,0.0,0.9034918,1.0,0.07629946451005658
Contrast Stuff,2022_Oct_14_1328,100,1200,1920,49,2,1.5,True,54,male,Ph,fr,69,0,0,2,0,2,1.0,68.0,0.0,1.0818963,1.0,0.1354581554882792
Contrast Stuff,2022_Oct_14_1328,100,1200,1920,49,2,1.5,True,54,male,Ph,fr,70,0,0,1,1,2,1.0,69.0,1.0,0.7441656,1.0,0.07629946451005658
Contrast Stuff,2022_Oct_14_1328,100,1200,1920,49,2,1.5,True,54,male,Ph,fr,71,0,0,2,0,2,1.0,70.0,1.0,0.7817496,0.0,0.1328033924101259
Contrast Stuff,2022_Oct_14_1328,100,1200,1920,49,2,1.5,True,54,male,Ph,fr,72,0,0,2,1,2,1.0,71.0,1.0,0.6858735,1.0,0.14661861467057924
Contrast Stuff,2022_Oct_14_1328,100,1200,1920,49,2,1.5,True,54,male,Ph,fr,73,0,0,1,0,2,1.0,72.0,1.0,0.7655989,0.0,0.07480411710528782
Contrast Stuff,2022_Oct_14_1328,100,1200,1920,49,2,1.5,True,54,male,Ph,fr,74,0,0,1,0,2,1.0,73.0,0.0,0.8073259,1.0,0.07938043364074708
Contrast Stuff,2022_Oct_14_1328,100,1200,1920,49,2,1.5,True,54,male,Ph,fr,75,0,0,1,0,2,1.0,74.0,0.0,1.2611378,1.0,0.0778247041713946
Contrast Stuff,2022_Oct_14_1328,100,1200,1920,49,2,1.5,True,54,male,Ph,fr,76,0,0,2,0,2,1.0,75.0,0.0,0.5757408,1.0,0.14374512445218396
Contrast Stuff,2022_Oct_14_1328,100,1200,1920,49,2,1.5,True,54,male,Ph,fr,77,0,0,1,1,2,1.0,76.0,1.0,0.8015449,1.0,0.0778247041713946
Contrast Stuff,2022_Oct_14_1328,100,1200,1920,49,2,1.5,True,54,male,Ph,fr,78,0,0,1,0,2,1.0,77.0,0.0,0.5913869,1.0,0.07629946451005658
Contrast Stuff,2022_Oct_14_1328,100,1200,1920,49,2,1.5,True,54,male,Ph,fr,79,0,0,2,1,2,1.0,78.0,1.0,0.5800382,1.0,0.14374512445218396
Contrast Stuff,2022_Oct_14_1328,100,1200,1920,49,2,1.5,True,54,male,Ph,fr,80,0,0,1,1,2,1.0,79.0,1.0,1.5404671,1.0,0.07480411710528782
Contrast Stuff,2022_Oct_14_1328,100,1200,1920,49,2,1.5,True,54,male,Ph,fr,81,361,0,2,0,3,1.0,80.0,1.0,2.168694,0.0,0.011410550312757525
Contrast Stuff,2022_Oct_14_1328,100,1200,1920,49,2,1.5,True,54,male,Ph,fr,82,361,0,1,1,3,1.0,81.0,1.0,2.7731726,1.0,0.011410550312757525
Contrast Stuff,2022_Oct_14_1328,100,1200,1920,49,2,1.5,True,54,male,Ph,fr,83,361,0,1,1,3,1.0,82.0,1.0,1.2010661,1.0,0.006956757690467928
Contrast Stuff,2022_Oct_14_1328,100,1200,1920,49,2,1.5,True,54,male,Ph,fr,84,361,0,2,1,3,1.0,83.0,1.0,1.0136858,1.0,0.03193728503137525
Contrast Stuff,2022_Oct_14_1328,100,1200,1920,49,2,1.5,True,54,male,Ph,fr,85,361,0,1,0,3,1.0,84.0,1.0,0.5491351,0.0,0.004682600487639664
Contrast Stuff,2022_Oct_14_1328,100,1200,1920,49,2,1.5,True,54,male,Ph,fr,86,361,0,1,1,3,1.0,85.0,1.0,0.6625738,1.0,0.012597562826699979
Contrast Stuff,2022_Oct_14_1328,100,1200,1920,49,2,1.5,True,54,male,Ph,fr,87,361,0,2,0,3,1.0,86.0,1.0,1.2309868,0.0,0.025185242205390552
Contrast Stuff,2022_Oct_14_1328,100,1200,1920,49,2,1.5,True,54,male,Ph,fr,88,361,0,1,0,3,1.0,87.0,1.0,0.5862469,0.0,0.00899818106145444
Contrast Stuff,2022_Oct_14_1328,100,1200,1920,49,2,1.5,True,54,male,Ph,fr,89,361,0,1,1,3,1.0,88.0,1.0,0.4774908,1.0,0.019471449418725976
Contrast Stuff,2022_Oct_14_1328,100,1200,1920,49,2,1.5,True,54,male,Ph,fr,90,361,0,1,0,3,1.0,89.0,1.0,0.6614434,0.0,0.01535487970310756
Contrast Stuff,2022_Oct_14_1328,100,1200,1920,49,2,1.5,True,54,male,Ph,fr,91,361,0,1,0,3,1.0,90.0,1.0,0.7114821,0.0,0.03131136535299098
Contrast Stuff,2022_Oct_14_1328,100,1200,1920,49,2,1.5,True,54,male,Ph,fr,92,361,0,1,1,3,1.0,91.0,1.0,1.3302402,1.0,0.05558859192225047
Contrast Stuff,2022_Oct_14_1328,100,1200,1920,49,2,1.5,True,54,male,Ph,fr,93,361,0,2,1,3,1.0,92.0,0.0,2.3086698,0.0,0.044712587127241334
Contrast Stuff,2022_Oct_14_1328,100,1200,1920,49,2,1.5,True,54,male,Ph,fr,94,361,0,1,1,3,1.0,93.0,1.0,0.8548954,1.0,0.049363931628254414
Contrast Stuff,2022_Oct_14_1328,100,1200,1920,49,2,1.5,True,54,male,Ph,fr,95,361,0,2,1,3,1.0,94.0,1.0,1.499721,1.0,0.06911010412134794
Contrast Stuff,2022_Oct_14_1328,100,1200,1920,49,2,1.5,True,54,male,Ph,fr,96,361,0,2,0,3,1.0,95.0,1.0,1.0482149,0.0,0.06384951358948564
Contrast Stuff,2022_Oct_14_1328,100,1200,1920,49,2,1.5,True,54,male,Ph,fr,97,361,0,1,0,3,1.0,96.0,1.0,1.0814039,0.0,0.04383629197169139
Contrast Stuff,2022_Oct_14_1328,100,1200,1920,49,2,1.5,True,54,male,Ph,fr,98,361,0,2,1,3,1.0,97.0,0.0,0.9275094,0.0,0.08423671702620264
Contrast Stuff,2022_Oct_14_1328,100,1200,1920,49,2,1.5,True,54,male,Ph,fr,99,361,0,2,0,3,1.0,98.0,0.0,1.0490437,1.0,0.10682017746080334
Contrast Stuff,2022_Oct_14_1328,100,1200,1920,49,2,1.5,True,54,male,Ph,fr,100,361,0,2,0,3,1.0,99.0,0.0,0.6824203,1.0,0.10267419772502775
Contrast Stuff,2022_Oct_14_1328,100,1200,1920,49,2,1.5,True,54,male,Ph,fr,101,361,0,1,0,3,1.0,100.0,0.0,1.1244578,1.0,0.06137134143349693
Contrast Stuff,2022_Oct_14_1328,100,1200,1920,49,2,1.5,True,54,male,Ph,fr,102,361,0,2,1,3,1.0,101.0,0.0,0.8247469,0.0,0.09868913466602672
Contrast Stuff,2022_Oct_14_1328,100,1200,1920,49,2,1.5,True,54,male,Ph,fr,103,361,0,2,1,3,1.0,102.0,0.0,2.871306,0.0,0.1156211405781588
Contrast Stuff,2022_Oct_14_1328,100,1200,1920,49,2,1.5,True,54,male,Ph,fr,104,361,0,1,1,3,1.0,103.0,1.0,2.5784745,1.0,0.05783325689900704
Contrast Stuff,2022_Oct_14_1328,100,1200,1920,49,2,1.5,True,54,male,Ph,fr,105,361,0,1,1,3,1.0,104.0,1.0,2.339869,1.0,0.053431048458755306
Contrast Stuff,2022_Oct_14_1328,100,1200,1920,49,2,1.5,True,54,male,Ph,fr,106,361,0,2,0,3,1.0,105.0,1.0,1.0176808,0.0,0.1354581554882792
Contrast Stuff,2022_Oct_14_1328,100,1200,1920,49,2,1.5,True,54,male,Ph,fr,107,361,0,1,1,3,1.0,106.0,0.0,1.2657217,0.0,0.05035072526884501
Contrast Stuff,2022_Oct_14_1328,100,1200,1920,49,2,1.5,True,54,male,Ph,fr,108,361,0,1,1,3,1.0,107.0,1.0,1.0224828,1.0,0.06137134143349693
Contrast Stuff,2022_Oct_14_1328,100,1200,1920,49,2,1.5,True,54,male,Ph,fr,109,361,0,2,1,3,1.0,108.0,1.0,0.9657445,1.0,0.1555883507852197
Contrast Stuff,2022_Oct_14_1328,100,1200,1920,49,2,1.5,True,54,male,Ph,fr,110,361,0,1,1,3,1.0,109.0,1.0,0.5365902,1.0,0.05898935383537662
Contrast Stuff,2022_Oct_14_1328,100,1200,1920,49,2,1.5,True,54,male,Ph,fr,111,361,0,1,1,3,1.0,110.0,1.0,1.2447613,1.0,0.056699817612524815
Contrast Stuff,2022_Oct_14_1328,100,1200,1920,49,2,1.5,True,54,male,Ph,fr,112,361,0,2,0,3,1.0,111.0,1.0,0.8955783,0.0,0.14954954646180463
Contrast Stuff,2022_Oct_14_1328,100,1200,1920,49,2,1.5,True,54,male,Ph,fr,113,361,0,2,1,3,1.0,112.0,0.0,0.8344189,0.0,0.16840734593483328
Contrast Stuff,2022_Oct_14_1328,100,1200,1920,49,2,1.5,True,54,male,Ph,fr,114,361,0,1,0,3,1.0,113.0,0.0,1.1794872,1.0,0.053431048458755306
Contrast Stuff,2022_Oct_14_1328,100,1200,1920,49,2,1.5,True,54,male,Ph,fr,115,361,0,1,0,3,1.0,114.0,0.0,0.668284,1.0,0.05035072526884501
Contrast Stuff,2022_Oct_14_1328,100,1200,1920,49,2,1.5,True,54,male,Ph,fr,116,361,0,2,0,3,1.0,115.0,0.0,2.3584769,1.0,0.18592636312377486
Contrast Stuff,2022_Oct_14_1328,100,1200,1920,49,2,1.5,True,54,male,Ph,fr,117,361,0,2,0,3,1.0,116.0,0.0,2.5502038,1.0,0.18228250393864812
Contrast Stuff,2022_Oct_14_1328,100,1200,1920,49,2,1.5,True,54,male,Ph,fr,118,361,0,1,0,3,1.0,117.0,0.0,1.5675219,1.0,0.04839647756388463
Contrast Stuff,2022_Oct_14_1328,100,1200,1920,49,2,1.5,True,54,male,Ph,fr,119,361,0,1,0,3,1.0,118.0,0.0,3.2991896,1.0,0.04651807949310431
Contrast Stuff,2022_Oct_14_1328,100,1200,1920,49,2,1.5,True,54,male,Ph,fr,120,361,0,1,1,3,1.0,119.0,0.0,1.2132659,0.0,0.044712587127241334
Contrast Stuff,2022_Oct_14_1328,100,1200,1920,49,2,1.5,True,54,male,Ph,fr,121,361,0,1,0,3,1.0,120.0,1.0,1.1029084,0.0,0.05135724508717292
Contrast Stuff,2022_Oct_14_1328,100,1200,1920,49,2,1.5,True,54,male,Ph,fr,122,361,0,1,1,3,1.0,121.0,0.0,1.5308647,0.0,0.056699817612524815
Contrast Stuff,2022_Oct_14_1328,100,1200,1920,49,2,1.5,True,54,male,Ph,fr,123,361,0,2,1,3,1.0,122.0,0.0,0.6961346,0.0,0.17871005856239663
Contrast Stuff,2022_Oct_14_1328,100,1200,1920,49,2,1.5,True,54,male,Ph,fr,124,361,0,1,1,3,1.0,123.0,0.0,0.5968343,0.0,0.06384951358948564
Contrast Stuff,2022_Oct_14_1328,100,1200,1920,49,2,1.5,True,54,male,Ph,fr,125,361,0,2,1,3,1.0,124.0,1.0,0.2577098,1.0,0.19343406175631772
Contrast Stuff,2022_Oct_14_1328,100,1200,1920,49,2,1.5,True,54,male,Ph,fr,126,361,0,1,0,3,1.0,125.0,1.0,3.5254383,0.0,0.07480411710528782
Contrast Stuff,2022_Oct_14_1328,100,1200,1920,49,2,1.5,True,54,male,Ph,fr,127,361,0,1,0,3,1.0,126.0,1.0,1.4051969,0.0,0.09485874267274703
Contrast Stuff,2022_Oct_14_1328,100,1200,1920,49,2,1.5,True,54,male,Ph,fr,128,361,0,1,1,3,1.0,127.0,0.0,0.5687118,0.0,0.1156211405781588
Contrast Stuff,2022_Oct_14_1328,100,1200,1920,49,2,1.5,True,54,male,Ph,fr,129,361,0,2,1,3,1.0,128.0,0.0,1.7670053,0.0,0.18964306369232664
Contrast Stuff,2022_Oct_14_1328,100,1200,1920,49,2,1.5,True,54,male,Ph,fr,130,361,0,2,0,3,1.0,129.0,0.0,0.1428155,1.0,0.20124492094022123
Contrast Stuff,2022_Oct_14_1328,100,1200,1920,49,2,1.5,True,54,male,Ph,fr,131,361,0,2,1,3,1.0,130.0,0.0,1.451953,0.0,0.20124492094022123
Contrast Stuff,2022_Oct_14_1328,100,1200,1920,49,2,1.5,True,54,male,Ph,fr,132,361,0,1,0,3,1.0,131.0,0.0,0.582352,1.0,0.13816598774541355
Contrast Stuff,2022_Oct_14_1328,100,1200,1920,49,2,1.5,True,54,male,Ph,fr,133,361,0,2,1,3,1.0,132.0,0.0,0.4283427,0.0,0.21355654889620218
Contrast Stuff,2022_Oct_14_1328,100,1200,1920,49,2,1.5,True,54,male,Ph,fr,134,361,0,1,0,3,1.0,133.0,0.0,0.7365357,1.0,0.1328033924101259
Contrast Stuff,2022_Oct_14_1328,100,1200,1920,49,2,1.5,True,54,male,Ph,fr,135,361,0,1,0,3,1.0,134.0,0.0,0.7649583,1.0,0.1276489338905576
Contrast Stuff,2022_Oct_14_1328,100,1200,1920,49,2,1.5,True,54,male,Ph,fr,136,361,0,2,0,3,1.0,135.0,1.0,0.9693091,0.0,0.2266213694406883
Contrast Stuff,2022_Oct_14_1328,100,1200,1920,49,2,1.5,True,54,male,Ph,fr,137,361,0,2,0,3,1.0,136.0,1.0,0.3184692,0.0,0.2404854608890255
Contrast Stuff,2022_Oct_14_1328,100,1200,1920,49,2,1.5,True,54,male,Ph,fr,138,361,0,2,0,3,1.0,137.0,1.0,0.4233881,0.0,0.25519772050509687
Contrast Stuff,2022_Oct_14_1328,100,1200,1920,49,2,1.5,True,54,male,Ph,fr,139,361,0,1,1,3,1.0,138.0,1.0,0.5447826,1.0,0.12269453383446513
Contrast Stuff,2022_Oct_14_1328,100,1200,1920,49,2,1.5,True,54,male,Ph,fr,140,361,0,1,0,3,1.0,139.0,1.0,0.6286577,0.0,0.1156211405781588
Contrast Stuff,2022_Oct_14_1328,100,1200,1920,49,2,1.5,True,54,male,Ph,fr,141,361,0,1,1,3,1.0,140.0,1.0,0.8197618,1.0,0.1328033924101259
Contrast Stuff,2022_Oct_14_1328,100,1200,1920,49,2,1.5,True,54,male,Ph,fr,142,361,0,2,0,3,1.0,141.0,1.0,0.2855303,0.0,0.2708100369570805
Contrast Stuff,2022_Oct_14_1328,100,1200,1920,49,2,1.5,True,54,male,Ph,fr,143,361,0,2,1,3,1.0,142.0,1.0,0.2968341,1.0,0.28174533472756413
Contrast Stuff,2022_Oct_14_1328,100,1200,1920,49,2,1.5,True,54,male,Ph,fr,144,361,0,1,0,3,1.0,143.0,1.0,0.3850182,0.0,0.13020065843997086
Contrast Stuff,2022_Oct_14_1328,100,1200,1920,49,2,1.5,True,54,male,Ph,fr,145,361,0,2,0,3,1.0,144.0,1.0,0.3643322,0.0,0.28174533472756413
Contrast Stuff,2022_Oct_14_1328,100,1200,1920,49,2,1.5,True,54,male,Ph,fr,146,361,0,1,0,3,1.0,145.0,1.0,0.815191,0.0,0.14092795004371353
Contrast Stuff,2022_Oct_14_1328,100,1200,1920,49,2,1.5,True,54,male,Ph,fr,147,361,0,2,1,3,1.0,146.0,1.0,0.4404078,1.0,0.2931221993567684
Contrast Stuff,2022_Oct_14_1328,100,1200,1920,49,2,1.5,True,54,male,Ph,fr,148,361,0,1,1,3,1.0,147.0,1.0,1.0960236,1.0,0.1555883507852197
Contrast Stuff,2022_Oct_14_1328,100,1200,1920,49,2,1.5,True,54,male,Ph,fr,149,361,0,2,1,3,1.0,148.0,1.0,1.5606222,1.0,0.2931221993567684
Contrast Stuff,2022_Oct_14_1328,100,1200,1920,49,2,1.5,True,54,male,Ph,fr,150,361,0,1,1,3,1.0,149.0,1.0,0.9101921,1.0,0.15253906809296364
Contrast Stuff,2022_Oct_14_1328,100,1200,1920,49,2,1.5,True,54,male,Ph,fr,151,361,0,2,0,3,1.0,150.0,0.0,1.2149409,1.0,0.28737747332359304
Contrast Stuff,2022_Oct_14_1328,100,1200,1920,49,2,1.5,True,54,male,Ph,fr,152,361,0,2,0,3,1.0,151.0,0.0,0.9714603,1.0,0.28174533472756413
Contrast Stuff,2022_Oct_14_1328,100,1200,1920,49,2,1.5,True,54,male,Ph,fr,153,361,0,2,0,3,1.0,152.0,0.0,1.1954415,1.0,0.28174533472756413
Contrast Stuff,2022_Oct_14_1328,100,1200,1920,49,2,1.5,True,54,male,Ph,fr,154,361,0,2,1,3,1.0,153.0,0.0,1.287301,0.0,0.27622357703508327
Contrast Stuff,2022_Oct_14_1328,100,1200,1920,49,2,1.5,True,54,male,Ph,fr,155,361,0,2,0,3,1.0,154.0,1.0,0.6985993,0.0,0.2931221993567684
Contrast Stuff,2022_Oct_14_1328,100,1200,1920,49,2,1.5,True,54,male,Ph,fr,156,361,0,2,0,3,1.0,155.0,1.0,1.6100514,0.0,0.2989817634696808
Contrast Stuff,2022_Oct_14_1328,100,1200,1920,49,2,1.5,True,54,male,Ph,fr,157,361,0,2,1,3,1.0,156.0,1.0,1.0283873,1.0,0.3110546343581532
Contrast Stuff,2022_Oct_14_1328,100,1200,1920,49,2,1.5,True,54,male,Ph,fr,158,361,0,2,1,3,1.0,157.0,1.0,0.7065301,1.0,0.30495846129566156
Contrast Stuff,2022_Oct_14_1328,100,1200,1920,49,2,1.5,True,54,male,Ph,fr,159,361,0,1,0,3,1.0,158.0,1.0,0.6571976,0.0,0.14954954646180463
Contrast Stuff,2022_Oct_14_1328,100,1200,1920,49,2,1.5,True,54,male,Ph,fr,160,361,0,2,1,3,1.0,159.0,0.0,0.4015819,0.0,0.30495846129566156
Contrast Stuff,2022_Oct_14_1328,100,1200,1920,49,2,1.5,True,54,male,Ph,fr,161,90,0,1,1,1,1.0,160.0,0.0,1.7914829,0.0,0.06016856135202387
Contrast Stuff,2022_Oct_14_1328,100,1200,1920,49,2,1.5,True,54,male,Ph,fr,162,90,0,1,0,1,1.0,161.0,0.0,1.4036402,1.0,0.18228250393864812
Contrast Stuff,2022_Oct_14_1328,100,1200,1920,49,2,1.5,True,54,male,Ph,fr,163,90,0,1,1,1,1.0,162.0,1.0,1.2975296,1.0,0.14954954646180463
Contrast Stuff,2022_Oct_14_1328,100,1200,1920,49,2,1.5,True,54,male,Ph,fr,164,90,0,1,1,1,1.0,163.0,1.0,1.2573135,1.0,0.12028991731550513
Contrast Stuff,2022_Oct_14_1328,100,1200,1920,49,2,1.5,True,54,male,Ph,fr,165,90,0,1,0,1,1.0,164.0,1.0,1.0362118,0.0,0.10066194775589994
Contrast Stuff,2022_Oct_14_1328,100,1200,1920,49,2,1.5,True,54,male,Ph,fr,166,90,0,1,0,1,1.0,165.0,0.0,2.0672479,1.0,0.16510683145147853
Contrast Stuff,2022_Oct_14_1328,100,1200,1920,49,2,1.5,True,54,male,Ph,fr,167,90,0,2,1,1,1.0,166.0,0.0,0.6871103,0.0,0.06016856135202387
Contrast Stuff,2022_Oct_14_1328,100,1200,1920,49,2,1.5,True,54,male,Ph,fr,168,90,0,2,1,1,1.0,167.0,1.0,1.5539871,1.0,0.18228250393864812
Contrast Stuff,2022_Oct_14_1328,100,1200,1920,49,2,1.5,True,54,male,Ph,fr,169,90,0,1,0,1,1.0,168.0,0.0,1.9519286,1.0,0.14661861467057924
Contrast Stuff,2022_Oct_14_1328,100,1200,1920,49,2,1.5,True,54,male,Ph,fr,170,90,0,1,1,1,1.0,169.0,0.0,1.2239774,0.0,0.1328033924101259
Contrast Stuff,2022_Oct_14_1328,100,1200,1920,49,2,1.5,True,54,male,Ph,fr,171,90,0,1,0,1,1.0,170.0,1.0,0.733589,0.0,0.18228250393864812
Contrast Stuff,2022_Oct_14_1328,100,1200,1920,49,2,1.5,True,54,male,Ph,fr,172,90,0,2,0,1,1.0,171.0,1.0,1.4845989,0.0,0.14954954646180463
Contrast Stuff,2022_Oct_14_1328,100,1200,1920,49,2,1.5,True,54,male,Ph,fr,173,90,0,2,1,1,1.0,172.0,0.0,2.2073088,0.0,0.25019625356806596
Contrast Stuff,2022_Oct_14_1328,100,1200,1920,49,2,1.5,True,54,male,Ph,fr,174,90,0,1,0,1,1.0,173.0,1.0,1.4794532,0.0,0.2655025936014887
Contrast Stuff,2022_Oct_14_1328,100,1200,1920,49,2,1.5,True,54,male,Ph,fr,175,90,0,2,1,1,1.0,174.0,0.0,1.430757,0.0,0.3502777952346755
Contrast Stuff,2022_Oct_14_1328,100,1200,1920,49,2,1.5,True,54,male,Ph,fr,176,90,0,1,1,1,1.0,175.0,1.0,0.8996912,1.0,0.3644219977033851
Contrast Stuff,2022_Oct_14_1328,100,1200,1920,49,2,1.5,True,54,male,Ph,fr,177,90,0,2,1,1,1.0,176.0,1.0,0.6993876,1.0,0.4441855946962907
Contrast Stuff,2022_Oct_14_1328,100,1200,1920,49,2,1.5,True,54,male,Ph,fr,178,90,0,2,1,1,1.0,177.0,1.0,0.4677504,1.0,0.42694555149181274
Contrast Stuff,2022_Oct_14_1328,100,1200,1920,49,2,1.5,True,54,male,Ph,fr,179,90,0,2,1,1,1.0,178.0,1.0,1.3791343,1.0,0.41037464094999004
Contrast Stuff,2022_Oct_14_1328,100,1200,1920,49,2,1.5,True,54,male,Ph,fr,180,90,0,2,0,1,1.0,179.0,1.0,0.9131822,0.0,0.38671636435739903
Contrast Stuff,2022_Oct_14_1328,100,1200,1920,49,2,1.5,True,54,male,Ph,fr,181,90,0,2,0,1,1.0,180.0,0.0,4.976352,1.0,0.4441855946962907
Contrast Stuff,2022_Oct_14_1328,100,1200,1920,49,2,1.5,True,54,male,Ph,fr,182,90,0,2,0,1,1.0,181.0,0.0,0.9535156,1.0,0.43548026785645116
Contrast Stuff,2022_Oct_14_1328,100,1200,1920,49,2,1.5,True,54,male,Ph,fr,183,90,0,2,0,1,1.0,182.0,0.0,0.687229,1.0,0.42694555149181274
Contrast Stuff,2022_Oct_14_1328,100,1200,1920,49,2,1.5,True,54,male,Ph,fr,184,90,0,2,0,1,1.0,183.0,0.0,0.7235125,1.0,0.41037464094999004
Contrast Stuff,2022_Oct_14_1328,100,1200,1920,49,2,1.5,True,54,male,Ph,fr,185,90,0,2,1,1,1.0,184.0,1.0,0.7969429,1.0,0.40233195469697436
Contrast Stuff,2022_Oct_14_1328,100,1200,1920,49,2,1.5,True,54,male,Ph,fr,186,90,0,1,1,1,1.0,185.0,1.0,0.5397401,1.0,0.3434129109865918
Contrast Stuff,2022_Oct_14_1328,100,1200,1920,49,2,1.5,True,54,male,Ph,fr,187,90,0,2,0,1,1.0,186.0,1.0,0.714146,0.0,0.3791373424660041
Contrast Stuff,2022_Oct_14_1328,100,1200,1920,49,2,1.5,True,54,male,Ph,fr,188,90,0,1,1,1,1.0,187.0,1.0,1.4567688,1.0,0.32361500725945164
Contrast Stuff,2022_Oct_14_1328,100,1200,1920,49,2,1.5,True,54,male,Ph,fr,189,90,0,1,1,1,1.0,188.0,1.0,0.8323761,1.0,0.30495846129566156
Contrast Stuff,2022_Oct_14_1328,100,1200,1920,49,2,1.5,True,54,male,Ph,fr,190,90,0,1,1,1,1.0,189.0,1.0,2.9715555,1.0,0.28174533472756413
Contrast Stuff,2022_Oct_14_1328,100,1200,1920,49,2,1.5,True,54,male,Ph,fr,191,90,0,1,0,1,1.0,190.0,1.0,2.2990992,0.0,0.25019625356806596
Contrast Stuff,2022_Oct_14_1328,100,1200,1920,49,2,1.5,True,54,male,Ph,fr,192,90,0,1,1,1,1.0,191.0,0.0,1.2832804,0.0,0.3172726709880634
Contrast Stuff,2022_Oct_14_1328,100,1200,1920,49,2,1.5,True,54,male,Ph,fr,193,90,0,2,1,1,1.0,192.0,1.0,0.5639036,1.0,0.42694555149181274
Contrast Stuff,2022_Oct_14_1328,100,1200,1920,49,2,1.5,True,54,male,Ph,fr,194,90,0,2,0,1,1.0,193.0,1.0,0.5130944,0.0,0.41857810191008316
Contrast Stuff,2022_Oct_14_1328,100,1200,1920,49,2,1.5,True,54,male,Ph,fr,195,90,0,2,1,1,1.0,194.0,0.0,1.2621303,0.0,0.45306494254461693
Contrast Stuff,2022_Oct_14_1328,100,1200,1920,49,2,1.5,True,54,male,Ph,fr,196,90,0,1,0,1,1.0,195.0,1.0,0.5570259,0.0,0.3644219977033851
Contrast Stuff,2022_Oct_14_1328,100,1200,1920,49,2,1.5,True,54,male,Ph,fr,197,90,0,2,0,1,1.0,196.0,0.0,0.8188535,1.0,0.4807822483352262
Contrast Stuff,2022_Oct_14_1328,100,1200,1920,49,2,1.5,True,54,male,Ph,fr,198,90,0,1,1,1,1.0,197.0,1.0,0.5626018,1.0,0.42694555149181274
Contrast Stuff,2022_Oct_14_1328,100,1200,1920,49,2,1.5,True,54,male,Ph,fr,199,90,0,1,0,1,1.0,198.0,0.0,1.3719671,1.0,0.41037464094999004
Contrast Stuff,2022_Oct_14_1328,100,1200,1920,49,2,1.5,True,54,male,Ph,fr,200,90,0,2,1,1,1.0,199.0,1.0,0.5982647,1.0,0.4713596856485354
Contrast Stuff,2022_Oct_14_1328,100,1200,1920,49,2,1.5,True,54,male,Ph,fr,201,90,0,2,0,1,1.0,200.0,0.0,0.6598599,1.0,0.46212179011187315
Contrast Stuff,2022_Oct_14_1328,100,1200,1920,49,2,1.5,True,54,male,Ph,fr,202,90,0,2,0,1,1.0,201.0,0.0,0.6696135,1.0,0.45306494254461693
Contrast Stuff,2022_Oct_14_1328,100,1200,1920,49,2,1.5,True,54,male,Ph,fr,203,90,0,1,0,1,1.0,202.0,0.0,0.6425582,1.0,0.3944468922240608
Contrast Stuff,2022_Oct_14_1328,100,1200,1920,49,2,1.5,True,54,male,Ph,fr,204,90,0,1,1,1,1.0,203.0,0.0,0.6403567,0.0,0.3791373424660041
Contrast Stuff,2022_Oct_14_1328,100,1200,1920,49,2,1.5,True,54,male,Ph,fr,205,90,0,1,0,1,1.0,204.0,0.0,0.6788267,1.0,0.43548026785645116
Contrast Stuff,2022_Oct_14_1328,100,1200,1920,49,2,1.5,True,54,male,Ph,fr,206,90,0,2,1,1,1.0,205.0,0.0,0.7114441,0.0,0.45306494254461693
Contrast Stuff,2022_Oct_14_1328,100,1200,1920,49,2,1.5,True,54,male,Ph,fr,207,90,0,1,1,1,1.0,206.0,0.0,0.5019729,0.0,0.42694555149181274
Contrast Stuff,2022_Oct_14_1328,100,1200,1920,49,2,1.5,True,54,male,Ph,fr,208,90,0,2,0,1,1.0,207.0,0.0,0.506946,1.0,0.4807822483352262
Contrast Stuff,2022_Oct_14_1328,100,1200,1920,49,2,1.5,True,54,male,Ph,fr,209,90,0,2,0,1,1.0,208.0,0.0,0.521274,1.0,0.4807822483352262
Contrast Stuff,2022_Oct_14_1328,100,1200,1920,49,2,1.5,True,54,male,Ph,fr,210,90,0,2,0,1,1.0,209.0,0.0,0.5070578,1.0,0.4713596856485354
Contrast Stuff,2022_Oct_14_1328,100,1200,1920,49,2,1.5,True,54,male,Ph,fr,211,90,0,1,1,1,1.0,210.0,0.0,0.680549,0.0,0.4713596856485354
Contrast Stuff,2022_Oct_14_1328,100,1200,1920,49,2,1.5,True,54,male,Ph,fr,212,90,0,2,1,1,1.0,211.0,1.0,0.3682533,1.0,0.46212179011187315
Contrast Stuff,2022_Oct_14_1328,100,1200,1920,49,2,1.5,True,54,male,Ph,fr,213,90,0,2,0,1,1.0,212.0,0.0,0.7800472,1.0,0.45306494254461693
Contrast Stuff,2022_Oct_14_1328,100,1200,1920,49,2,1.5,True,54,male,Ph,fr,214,90,0,2,1,1,1.0,213.0,1.0,0.4876745,1.0,0.4441855946962907
Contrast Stuff,2022_Oct_14_1328,100,1200,1920,49,2,1.5,True,54,male,Ph,fr,215,90,0,1,0,1,1.0,214.0,0.0,2.8504303,1.0,0.5203941169508742
Contrast Stuff,2022_Oct_14_1328,100,1200,1920,49,2,1.5,True,54,male,Ph,fr,216,90,0,2,0,1,1.0,215.0,0.0,0.8950775,1.0,0.4441855946962907
Contrast Stuff,2022_Oct_14_1328,100,1200,1920,49,2,1.5,True,54,male,Ph,fr,217,90,0,2,1,1,1.0,216.0,1.0,1.0166333,1.0,0.43548026785645116
Contrast Stuff,2022_Oct_14_1328,100,1200,1920,49,2,1.5,True,54,male,Ph,fr,218,90,0,1,0,1,1.0,217.0,0.0,0.809162,1.0,0.5101952250289417
Contrast Stuff,2022_Oct_14_1328,100,1200,1920,49,2,1.5,True,54,male,Ph,fr,219,90,0,1,1,1,1.0,218.0,1.0,0.5645895,1.0,0.5001962150677132
Contrast Stuff,2022_Oct_14_1328,100,1200,1920,49,2,1.5,True,54,male,Ph,fr,220,90,0,1,0,1,1.0,219.0,0.0,1.8150572,1.0,0.4807822483352262
Contrast Stuff,2022_Oct_14_1328,100,1200,1920,49,2,1.5,True,54,male,Ph,fr,221,90,0,1,1,1,1.0,220.0,1.0,0.6219121,1.0,0.4713596856485354
Contrast Stuff,2022_Oct_14_1328,100,1200,1920,49,2,1.5,True,54,male,Ph,fr,222,90,0,1,1,1,1.0,221.0,1.0,0.7891364,1.0,0.45306494254461693
Contrast Stuff,2022_Oct_14_1328,100,1200,1920,49,2,1.5,True,54,male,Ph,fr,223,90,0,2,1,1,1.0,222.0,1.0,0.5510575,1.0,0.42694555149181274
Contrast Stuff,2022_Oct_14_1328,100,1200,1920,49,2,1.5,True,54,male,Ph,fr,224,90,0,2,1,1,1.0,223.0,1.0,0.548434,1.0,0.42694555149181274
Contrast Stuff,2022_Oct_14_1328,100,1200,1920,49,2,1.5,True,54,male,Ph,fr,225,90,0,1,1,1,1.0,224.0,1.0,0.4788194,1.0,0.4441855946962907
Contrast Stuff,2022_Oct_14_1328,100,1200,1920,49,2,1.5,True,54,male,Ph,fr,226,90,0,2,0,1,1.0,225.0,0.0,0.8047388,1.0,0.42694555149181274
Contrast Stuff,2022_Oct_14_1328,100,1200,1920,49,2,1.5,True,54,male,Ph,fr,227,90,0,1,1,1,1.0,226.0,1.0,0.5079423,1.0,0.43548026785645116
Contrast Stuff,2022_Oct_14_1328,100,1200,1920,49,2,1.5,True,54,male,Ph,fr,228,90,0,2,1,1,1.0,227.0,1.0,0.6755747,1.0,0.41857810191008316
Contrast Stuff,2022_Oct_14_1328,100,1200,1920,49,2,1.5,True,54,male,Ph,fr,229,90,0,1,0,1,1.0,228.0,0.0,0.6693052,1.0,0.42694555149181274
Contrast Stuff,2022_Oct_14_1328,100,1200,1920,49,2,1.5,True,54,male,Ph,fr,230,90,0,2,1,1,1.0,229.0,1.0,0.518295,1.0,0.41857810191008316
Contrast Stuff,2022_Oct_14_1328,100,1200,1920,49,2,1.5,True,54,male,Ph,fr,231,90,0,2,0,1,1.0,230.0,0.0,1.4040346,1.0,0.41857810191008316
Contrast Stuff,2022_Oct_14_1328,100,1200,1920,49,2,1.5,True,54,male,Ph,fr,232,90,0,2,0,1,1.0,231.0,1.0,0.9298534,0.0,0.41037464094999004
Contrast Stuff,2022_Oct_14_1328,100,1200,1920,49,2,1.5,True,54,male,Ph,fr,233,90,0,2,0,1,1.0,232.0,0.0,0.6157637,1.0,0.42694555149181274
Contrast Stuff,2022_Oct_14_1328,100,1200,1920,49,2,1.5,True,54,male,Ph,fr,234,90,0,1,0,1,1.0,233.0,0.0,1.4547033,1.0,0.42694555149181274
Contrast Stuff,2022_Oct_14_1328,100,1200,1920,49,2,1.5,True,54,male,Ph,fr,235,90,0,1,0,1,1.0,234.0,0.0,0.7457408,1.0,0.41857810191008316
Contrast Stuff,2022_Oct_14_1328,100,1200,1920,49,2,1.5,True,54,male,Ph,fr,236,90,0,1,1,1,1.0,235.0,1.0,0.7902898,1.0,0.41037464094999004
Contrast Stuff,2022_Oct_14_1328,100,1200,1920,49,2,1.5,True,54,male,Ph,fr,237,90,0,1,0,1,1.0,236.0,0.0,1.4431978,1.0,0.40233195469697436
Contrast Stuff,2022_Oct_14_1328,100,1200,1920,49,2,1.5,True,54,male,Ph,fr,238,90,0,2,1,1,1.0,237.0,1.0,0.4399637,1.0,0.42694555149181274
Contrast Stuff,2022_Oct_14_1328,100,1200,1920,49,2,1.5,True,54,male,Ph,fr,239,90,0,1,0,1,1.0,238.0,0.0,0.7573767,1.0,0.3944468922240608
Contrast Stuff,2022_Oct_14_1328,100,1200,1920,49,2,1.5,True,54,male,Ph,fr,240,90,0,1,0,1,1.0,239.0,0.0,1.511803,1.0,0.38671636435739903
Contrast Stuff,2022_Oct_14_1328,100,1200,1920,49,2,1.5,True,54,male,Ph,fr,241,0,0,2,1,2,1.0,240.0,1.0,1.4162079,1.0,0.14092795004371353
Contrast Stuff,2022_Oct_14_1328,100,1200,1920,49,2,1.5,True,54,male,Ph,fr,242,0,0,2,0,2,1.0,241.0,0.0,1.553562,1.0,0.13816598774541355
Contrast Stuff,2022_Oct_14_1328,100,1200,1920,49,2,1.5,True,54,male,Ph,fr,243,0,0,2,1,2,1.0,242.0,1.0,0.5592599,1.0,0.1354581554882792
Contrast Stuff,2022_Oct_14_1328,100,1200,1920,49,2,1.5,True,54,male,Ph,fr,244,0,0,1,0,2,1.0,243.0,0.0,0.7116079,1.0,0.07480411710528782
Contrast Stuff,2022_Oct_14_1328,100,1200,1920,49,2,1.5,True,54,male,Ph,fr,245,0,0,1,1,2,1.0,244.0,1.0,0.514999,1.0,0.07333807611669522
Contrast Stuff,2022_Oct_14_1328,100,1200,1920,49,2,1.5,True,54,male,Ph,fr,246,0,0,2,0,2,1.0,245.0,0.0,0.5306554,1.0,0.1276489338905576
Contrast Stuff,2022_Oct_14_1328,100,1200,1920,49,2,1.5,True,54,male,Ph,fr,247,0,0,2,0,2,1.0,246.0,1.0,0.6971481,0.0,0.12269453383446513
Contrast Stuff,2022_Oct_14_1328,100,1200,1920,49,2,1.5,True,54,male,Ph,fr,248,0,0,1,1,2,1.0,247.0,1.0,0.6127305,1.0,0.07190076718541984
Contrast Stuff,2022_Oct_14_1328,100,1200,1920,49,2,1.5,True,54,male,Ph,fr,249,0,0,2,0,2,1.0,248.0,1.0,0.654042,0.0,0.14092795004371353
Contrast Stuff,2022_Oct_14_1328,100,1200,1920,49,2,1.5,True,54,male,Ph,fr,250,0,0,2,1,2,1.0,249.0,1.0,0.6152515,1.0,0.14661861467057924
Contrast Stuff,2022_Oct_14_1328,100,1200,1920,49,2,1.5,True,54,male,Ph,fr,251,0,0,1,1,2,1.0,250.0,1.0,0.6088319,1.0,0.07190076718541984
Contrast Stuff,2022_Oct_14_1328,100,1200,1920,49,2,1.5,True,54,male,Ph,fr,252,0,0,2,1,2,1.0,251.0,1.0,0.465332,1.0,0.14661861467057924
Contrast Stuff,2022_Oct_14_1328,100,1200,1920,49,2,1.5,True,54,male,Ph,fr,253,0,0,1,0,2,1.0,252.0,1.0,0.5213188,0.0,0.07049162720911727
Contrast Stuff,2022_Oct_14_1328,100,1200,1920,49,2,1.5,True,54,male,Ph,fr,254,0,0,1,1,2,1.0,253.0,1.0,0.6432989,1.0,0.07480411710528782
Contrast Stuff,2022_Oct_14_1328,100,1200,1920,49,2,1.5,True,54,male,Ph,fr,255,0,0,2,0,2,1.0,254.0,1.0,0.7093728,0.0,0.14661861467057924
Contrast Stuff,2022_Oct_14_1328,100,1200,1920,49,2,1.5,True,54,male,Ph,fr,256,0,0,2,0,2,1.0,255.0,0.0,0.7835448,1.0,0.14954954646180463
Contrast Stuff,2022_Oct_14_1328,100,1200,1920,49,2,1.5,True,54,male,Ph,fr,257,0,0,2,1,2,1.0,256.0,1.0,0.8302341,1.0,0.14954954646180463
Contrast Stuff,2022_Oct_14_1328,100,1200,1920,49,2,1.5,True,54,male,Ph,fr,258,0,0,1,1,2,1.0,257.0,1.0,0.6232924,1.0,0.07480411710528782
Contrast Stuff,2022_Oct_14_1328,100,1200,1920,49,2,1.5,True,54,male,Ph,fr,259,0,0,1,0,2,1.0,258.0,1.0,0.6370999,0.0,0.07333807611669522
Contrast Stuff,2022_Oct_14_1328,100,1200,1920,49,2,1.5,True,54,male,Ph,fr,260,0,0,2,0,2,1.0,259.0,1.0,0.7308472,0.0,0.14954954646180463
Contrast Stuff,2022_Oct_14_1328,100,1200,1920,49,2,1.5,True,54,male,Ph,fr,261,0,0,1,1,2,1.0,260.0,1.0,0.4752736,1.0,0.0778247041713946
Contrast Stuff,2022_Oct_14_1328,100,1200,1920,49,2,1.5,True,54,male,Ph,fr,262,0,0,1,0,2,1.0,261.0,1.0,0.5264735,0.0,0.07629946451005658
Contrast Stuff,2022_Oct_14_1328,100,1200,1920,49,2,1.5,True,54,male,Ph,fr,263,0,0,1,1,2,1.0,262.0,1.0,0.8254694,1.0,0.07938043364074708
Contrast Stuff,2022_Oct_14_1328,100,1200,1920,49,2,1.5,True,54,male,Ph,fr,264,0,0,2,0,2,1.0,263.0,1.0,0.8437788,0.0,0.15253906809296364
Contrast Stuff,2022_Oct_14_1328,100,1200,1920,49,2,1.5,True,54,male,Ph,fr,265,0,0,1,1,2,1.0,264.0,1.0,0.7862902,1.0,0.07938043364074708
Contrast Stuff,2022_Oct_14_1328,100,1200,1920,49,2,1.5,True,54,male,Ph,fr,266,0,0,1,1,2,1.0,265.0,1.0,0.7051031,1.0,0.07938043364074708
Contrast Stuff,2022_Oct_14_1328,100,1200,1920,49,2,1.5,True,54,male,Ph,fr,267,0,0,2,0,2,1.0,266.0,1.0,0.6984119,0.0,0.15869858917265317
Contrast Stuff,2022_Oct_14_1328,100,1200,1920,49,2,1.5,True,54,male,Ph,fr,268,0,0,1,1,2,1.0,267.0,1.0,0.5227518,1.0,0.0778247041713946
Contrast Stuff,2022_Oct_14_1328,100,1200,1920,49,2,1.5,True,54,male,Ph,fr,269,0,0,2,0,2,1.0,268.0,0.0,0.7706152,1.0,0.1618710017702884
Contrast Stuff,2022_Oct_14_1328,100,1200,1920,49,2,1.5,True,54,male,Ph,fr,270,0,0,1,1,2,1.0,269.0,1.0,0.6042695,1.0,0.0778247041713946
Contrast Stuff,2022_Oct_14_1328,100,1200,1920,49,2,1.5,True,54,male,Ph,fr,271,0,0,1,0,2,1.0,270.0,0.0,1.5094622,1.0,0.0778247041713946
Contrast Stuff,2022_Oct_14_1328,100,1200,1920,49,2,1.5,True,54,male,Ph,fr,272,0,0,1,0,2,1.0,271.0,1.0,0.5951913,0.0,0.07629946451005658
Contrast Stuff,2022_Oct_14_1328,100,1200,1920,49,2,1.5,True,54,male,Ph,fr,273,0,0,1,0,2,1.0,272.0,0.0,0.6014502,1.0,0.07938043364074708
Contrast Stuff,2022_Oct_14_1328,100,1200,1920,49,2,1.5,True,54,male,Ph,fr,274,0,0,1,1,2,1.0,273.0,1.0,0.5045206,1.0,0.07938043364074708
Contrast Stuff,2022_Oct_14_1328,100,1200,1920,49,2,1.5,True,54,male,Ph,fr,275,0,0,1,1,2,1.0,274.0,1.0,0.6835432,1.0,0.07938043364074708
Contrast Stuff,2022_Oct_14_1328,100,1200,1920,49,2,1.5,True,54,male,Ph,fr,276,0,0,2,0,2,1.0,275.0,0.0,0.7557526,1.0,0.1618710017702884
Contrast Stuff,2022_Oct_14_1328,100,1200,1920,49,2,1.5,True,54,male,Ph,fr,277,0,0,2,0,2,1.0,276.0,0.0,0.7114448,1.0,0.1618710017702884
Contrast Stuff,2022_Oct_14_1328,100,1200,1920,49,2,1.5,True,54,male,Ph,fr,278,0,0,2,1,2,1.0,277.0,1.0,0.5933601,1.0,0.15869858917265317
Contrast Stuff,2022_Oct_14_1328,100,1200,1920,49,2,1.5,True,54,male,Ph,fr,279,0,0,2,0,2,1.0,278.0,0.0,0.6425748,1.0,0.15869858917265317
Contrast Stuff,2022_Oct_14_1328,100,1200,1920,49,2,1.5,True,54,male,Ph,fr,280,0,0,1,1,2,1.0,279.0,1.0,0.4778896,1.0,0.0778247041713946
Contrast Stuff,2022_Oct_14_1328,100,1200,1920,49,2,1.5,True,54,male,Ph,fr,281,0,0,1,0,2,1.0,280.0,0.0,0.7298667,1.0,0.0778247041713946
Contrast Stuff,2022_Oct_14_1328,100,1200,1920,49,2,1.5,True,54,male,Ph,fr,282,0,0,1,1,2,1.0,281.0,1.0,0.4903205,1.0,0.06775565667529103
Contrast Stuff,2022_Oct_14_1328,100,1200,1920,49,2,1.5,True,54,male,Ph,fr,283,0,0,1,0,2,1.0,282.0,0.0,0.4786876,1.0,0.06775565667529103
Contrast Stuff,2022_Oct_14_1328,100,1200,1920,49,2,1.5,True,54,male,Ph,fr,284,0,0,1,0,2,1.0,283.0,1.0,0.5333718,0.0,0.06642775423169728
Contrast Stuff,2022_Oct_14_1328,100,1200,1920,49,2,1.5,True,54,male,Ph,fr,285,0,0,1,1,2,1.0,284.0,1.0,0.8001628,1.0,0.0778247041713946
Contrast Stuff,2022_Oct_14_1328,100,1200,1920,49,2,1.5,True,54,male,Ph,fr,286,0,0,2,0,2,1.0,285.0,0.0,0.5976663,1.0,0.15869858917265317
Contrast Stuff,2022_Oct_14_1328,100,1200,1920,49,2,1.5,True,54,male,Ph,fr,287,0,0,1,0,2,1.0,286.0,0.0,0.6613023,1.0,0.06911010412134794
Contrast Stuff,2022_Oct_14_1328,100,1200,1920,49,2,1.5,True,54,male,Ph,fr,288,0,0,2,1,2,1.0,287.0,1.0,0.4915152,1.0,0.15869858917265317
Contrast Stuff,2022_Oct_14_1328,100,1200,1920,49,2,1.5,True,54,male,Ph,fr,289,0,0,1,0,2,1.0,288.0,0.0,0.5353965,1.0,0.06775565667529103
Contrast Stuff,2022_Oct_14_1328,100,1200,1920,49,2,1.5,True,54,male,Ph,fr,290,0,0,2,1,2,1.0,289.0,1.0,0.4869516,1.0,0.1555883507852197
Contrast Stuff,2022_Oct_14_1328,100,1200,1920,49,2,1.5,True,54,male,Ph,fr,291,0,0,2,1,2,1.0,290.0,1.0,0.697195,1.0,0.1555883507852197
Contrast Stuff,2022_Oct_14_1328,100,1200,1920,49,2,1.5,True,54,male,Ph,fr,292,0,0,1,1,2,1.0,291.0,1.0,0.5140574,1.0,0.06775565667529103
Contrast Stuff,2022_Oct_14_1328,100,1200,1920,49,2,1.5,True,54,male,Ph,fr,293,0,0,2,1,2,1.0,292.0,1.0,0.5720339,1.0,0.1555883507852197
Contrast Stuff,2022_Oct_14_1328,100,1200,1920,49,2,1.5,True,54,male,Ph,fr,294,0,0,2,1,2,1.0,293.0,1.0,0.4668802,1.0,0.1555883507852197
Contrast Stuff,2022_Oct_14_1328,100,1200,1920,49,2,1.5,True,54,male,Ph,fr,295,0,0,1,0,2,1.0,294.0,0.0,0.5924716,1.0,0.06642775423169728
Contrast Stuff,2022_Oct_14_1328,100,1200,1920,49,2,1.5,True,54,male,Ph,fr,296,0,0,2,1,2,1.0,295.0,1.0,0.5797058,1.0,0.1555883507852197
Contrast Stuff,2022_Oct_14_1328,100,1200,1920,49,2,1.5,True,54,male,Ph,fr,297,0,0,2,1,2,1.0,296.0,1.0,0.664142,1.0,0.15253906809296364
Contrast Stuff,2022_Oct_14_1328,100,1200,1920,49,2,1.5,True,54,male,Ph,fr,298,0,0,1,0,2,1.0,297.0,1.0,0.6130918,0.0,0.06642775423169728
Contrast Stuff,2022_Oct_14_1328,100,1200,1920,49,2,1.5,True,54,male,Ph,fr,299,0,0,2,1,2,1.0,298.0,1.0,1.4895914,1.0,0.15253906809296364
Contrast Stuff,2022_Oct_14_1328,100,1200,1920,49,2,1.5,True,54,male,Ph,fr,300,0,0,2,1,2,1.0,299.0,1.0,0.6926085,1.0,0.13020065843997086
Contrast Stuff,2022_Oct_14_1328,100,1200,1920,49,2,1.5,True,54,male,Ph,fr,301,0,0,1,0,2,1.0,300.0,0.0,1.9054931,1.0,0.07629946451005658
Contrast Stuff,2022_Oct_14_1328,100,1200,1920,49,2,1.5,True,54,male,Ph,fr,302,0,0,2,0,2,1.0,301.0,0.0,0.8331854,1.0,0.13020065843997086
Contrast Stuff,2022_Oct_14_1328,100,1200,1920,49,2,1.5,True,54,male,Ph,fr,303,0,0,2,1,2,1.0,302.0,1.0,0.6970942,1.0,0.1276489338905576
Contrast Stuff,2022_Oct_14_1328,100,1200,1920,49,2,1.5,True,54,male,Ph,fr,304,0,0,2,1,2,1.0,303.0,1.0,2.1553957,1.0,0.12514721905886855
Contrast Stuff,2022_Oct_14_1328,100,1200,1920,49,2,1.5,True,54,male,Ph,fr,305,0,0,2,1,2,1.0,304.0,1.0,0.5898467,1.0,0.12514721905886855
Contrast Stuff,2022_Oct_14_1328,100,1200,1920,49,2,1.5,True,54,male,Ph,fr,306,0,0,2,0,2,1.0,305.0,0.0,2.5086303,1.0,0.12269453383446513
Contrast Stuff,2022_Oct_14_1328,100,1200,1920,49,2,1.5,True,54,male,Ph,fr,307,0,0,2,0,2,1.0,306.0,0.0,0.6506552,1.0,0.12028991731550513
Contrast Stuff,2022_Oct_14_1328,100,1200,1920,49,2,1.5,True,54,male,Ph,fr,308,0,0,1,0,2,1.0,307.0,0.0,0.6193807,1.0,0.06775565667529103
Contrast Stuff,2022_Oct_14_1328,100,1200,1920,49,2,1.5,True,54,male,Ph,fr,309,0,0,2,0,2,1.0,308.0,0.0,0.6905074,1.0,0.11793242743228484
Contrast Stuff,2022_Oct_14_1328,100,1200,1920,49,2,1.5,True,54,male,Ph,fr,310,0,0,1,1,2,1.0,309.0,1.0,0.6601678,1.0,0.06642775423169728
Contrast Stuff,2022_Oct_14_1328,100,1200,1920,49,2,1.5,True,54,male,Ph,fr,311,0,0,2,0,2,1.0,310.0,0.0,0.5141937,1.0,0.1156211405781588
Contrast Stuff,2022_Oct_14_1328,100,1200,1920,49,2,1.5,True,54,male,Ph,fr,312,0,0,2,1,2,1.0,311.0,1.0,0.5094534,1.0,0.11335515124769421
Contrast Stuff,2022_Oct_14_1328,100,1200,1920,49,2,1.5,True,54,male,Ph,fr,313,0,0,1,0,2,1.0,312.0,0.0,1.3683606,1.0,0.06642775423169728
Contrast Stuff,2022_Oct_14_1328,100,1200,1920,49,2,1.5,True,54,male,Ph,fr,314,0,0,1,0,2,1.0,313.0,0.0,0.8619249,1.0,0.0651258765509975
Contrast Stuff,2022_Oct_14_1328,100,1200,1920,49,2,1.5,True,54,male,Ph,fr,315,0,0,1,0,2,1.0,314.0,0.0,0.523361,1.0,0.0651258765509975
Contrast Stuff,2022_Oct_14_1328,100,1200,1920,49,2,1.5,True,54,male,Ph,fr,316,0,0,2,0,2,1.0,315.0,0.0,0.6766473,1.0,0.11113357168191533
Contrast Stuff,2022_Oct_14_1328,100,1200,1920,49,2,1.5,True,54,male,Ph,fr,317,0,0,1,1,2,1.0,316.0,1.0,0.9391957,1.0,0.06384951358948564
Contrast Stuff,2022_Oct_14_1328,100,1200,1920,49,2,1.5,True,54,male,Ph,fr,318,0,0,1,0,2,1.0,317.0,0.0,3.5057657,1.0,0.06259816529949601
Contrast Stuff,2022_Oct_14_1328,100,1200,1920,49,2,1.5,True,54,male,Ph,fr,319,0,0,2,1,2,1.0,318.0,1.0,0.6599428,1.0,0.11113357168191533
Contrast Stuff,2022_Oct_14_1328,100,1200,1920,49,2,1.5,True,54,male,Ph,fr,320,0,0,1,1,2,1.0,319.0,1.0,0.7276438,1.0,0.06259816529949601
Contrast Stuff,2022_Oct_14_1328,100,1200,1920,49,2,1.5,True,54,male,Ph,fr,321,90,0,1,1,1,1.0,320.0,1.0,0.7717717,1.0,0.3791373424660041
Contrast Stuff,2022_Oct_14_1328,100,1200,1920,49,2,1.5,True,54,male,Ph,fr,322,90,0,1,0,1,1.0,321.0,1.0,0.8744306,0.0,0.3644219977033851
Contrast Stuff,2022_Oct_14_1328,100,1200,1920,49,2,1.5,True,54,male,Ph,fr,323,90,0,1,1,1,1.0,322.0,1.0,1.1045399,1.0,0.41037464094999004
Contrast Stuff,2022_Oct_14_1328,100,1200,1920,49,2,1.5,True,54,male,Ph,fr,324,90,0,1,1,1,1.0,323.0,1.0,0.6403992,1.0,0.40233195469697436
Contrast Stuff,2022_Oct_14_1328,100,1200,1920,49,2,1.5,True,54,male,Ph,fr,325,90,0,1,0,1,1.0,324.0,0.0,1.0221273,1.0,0.40233195469697436
Contrast Stuff,2022_Oct_14_1328,100,1200,1920,49,2,1.5,True,54,male,Ph,fr,326,90,0,1,0,1,1.0,325.0,0.0,1.111196,1.0,0.3944468922240608
Contrast Stuff,2022_Oct_14_1328,100,1200,1920,49,2,1.5,True,54,male,Ph,fr,327,90,0,2,1,1,1.0,326.0,1.0,0.8864306,1.0,0.42694555149181274
Contrast Stuff,2022_Oct_14_1328,100,1200,1920,49,2,1.5,True,54,male,Ph,fr,328,90,0,2,1,1,1.0,327.0,1.0,0.6682882,1.0,0.41857810191008316
Contrast Stuff,2022_Oct_14_1328,100,1200,1920,49,2,1.5,True,54,male,Ph,fr,329,90,0,1,0,1,1.0,328.0,1.0,0.7832958,0.0,0.3944468922240608
Contrast Stuff,2022_Oct_14_1328,100,1200,1920,49,2,1.5,True,54,male,Ph,fr,330,90,0,1,1,1,1.0,329.0,0.0,0.979788,0.0,0.41857810191008316
Contrast Stuff,2022_Oct_14_1328,100,1200,1920,49,2,1.5,True,54,male,Ph,fr,331,90,0,1,0,1,1.0,330.0,0.0,0.9749555,1.0,0.43548026785645116
Contrast Stuff,2022_Oct_14_1328,100,1200,1920,49,2,1.5,True,54,male,Ph,fr,332,90,0,2,0,1,1.0,331.0,0.0,0.6686967,1.0,0.41857810191008316
Contrast Stuff,2022_Oct_14_1328,100,1200,1920,49,2,1.5,True,54,male,Ph,fr,333,90,0,2,1,1,1.0,332.0,0.0,1.1720943,0.0,0.41857810191008316
Contrast Stuff,2022_Oct_14_1328,100,1200,1920,49,2,1.5,True,54,male,Ph,fr,334,90,0,1,0,1,1.0,333.0,1.0,0.8180768,0.0,0.43548026785645116
Contrast Stuff,2022_Oct_14_1328,100,1200,1920,49,2,1.5,True,54,male,Ph,fr,335,90,0,2,1,1,1.0,334.0,0.0,0.8784789,0.0,0.43548026785645116
Contrast Stuff,2022_Oct_14_1328,100,1200,1920,49,2,1.5,True,54,male,Ph,fr,336,90,0,1,1,1,1.0,335.0,1.0,0.5201077,1.0,0.45306494254461693
Contrast Stuff,2022_Oct_14_1328,100,1200,1920,49,2,1.5,True,54,male,Ph,fr,337,90,0,2,1,1,1.0,336.0,1.0,0.5027709,1.0,0.45306494254461693
Contrast Stuff,2022_Oct_14_1328,100,1200,1920,49,2,1.5,True,54,male,Ph,fr,338,90,0,2,1,1,1.0,337.0,1.0,0.5602137,1.0,0.4441855946962907
Contrast Stuff,2022_Oct_14_1328,100,1200,1920,49,2,1.5,True,54,male,Ph,fr,339,90,0,2,1,1,1.0,338.0,1.0,0.4689592,1.0,0.4441855946962907
Contrast Stuff,2022_Oct_14_1328,100,1200,1920,49,2,1.5,True,54,male,Ph,fr,340,90,0,2,0,1,1.0,339.0,1.0,1.3212916,0.0,0.4441855946962907
Contrast Stuff,2022_Oct_14_1328,100,1200,1920,49,2,1.5,True,54,male,Ph,fr,341,90,0,2,0,1,1.0,340.0,0.0,0.8677219,1.0,0.46212179011187315
Contrast Stuff,2022_Oct_14_1328,100,1200,1920,49,2,1.5,True,54,male,Ph,fr,342,90,0,2,0,1,1.0,341.0,1.0,0.8729733,0.0,0.46212179011187315
Contrast Stuff,2022_Oct_14_1328,100,1200,1920,49,2,1.5,True,54,male,Ph,fr,343,90,0,2,0,1,1.0,342.0,0.0,0.8140562,1.0,0.4807822483352262
Contrast Stuff,2022_Oct_14_1328,100,1200,1920,49,2,1.5,True,54,male,Ph,fr,344,90,0,2,0,1,1.0,343.0,0.0,0.7688617,1.0,0.4713596856485354
Contrast Stuff,2022_Oct_14_1328,100,1200,1920,49,2,1.5,True,54,male,Ph,fr,345,90,0,2,1,1,1.0,344.0,1.0,0.6653029,1.0,0.4713596856485354
Contrast Stuff,2022_Oct_14_1328,100,1200,1920,49,2,1.5,True,54,male,Ph,fr,346,90,0,1,1,1,1.0,345.0,1.0,0.8447257,1.0,0.45306494254461693
Contrast Stuff,2022_Oct_14_1328,100,1200,1920,49,2,1.5,True,54,male,Ph,fr,347,90,0,2,0,1,1.0,346.0,1.0,0.8253395,0.0,0.4713596856485354
Contrast Stuff,2022_Oct_14_1328,100,1200,1920,49,2,1.5,True,54,male,Ph,fr,348,90,0,1,1,1,1.0,347.0,0.0,0.9511163,0.0,0.4441855946962907
Contrast Stuff,2022_Oct_14_1328,100,1200,1920,49,2,1.5,True,54,male,Ph,fr,349,90,0,1,1,1,1.0,348.0,1.0,1.6567463,1.0,0.4713596856485354
Contrast Stuff,2022_Oct_14_1328,100,1200,1920,49,2,1.5,True,54,male,Ph,fr,350,90,0,1,1,1,1.0,349.0,1.0,1.9776441,1.0,0.4713596856485354
Contrast Stuff,2022_Oct_14_1328,100,1200,1920,49,2,1.5,True,54,male,Ph,fr,351,90,0,1,0,1,1.0,350.0,1.0,1.8145384,0.0,0.46212179011187315
Contrast Stuff,2022_Oct_14_1328,100,1200,1920,49,2,1.5,True,54,male,Ph,fr,352,90,0,1,1,1,1.0,351.0,0.0,0.957402,0.0,0.49039316970062474
Contrast Stuff,2022_Oct_14_1328,100,1200,1920,49,2,1.5,True,54,male,Ph,fr,353,90,0,2,1,1,1.0,352.0,1.0,0.7940449,1.0,0.49039316970062474
Contrast Stuff,2022_Oct_14_1328,100,1200,1920,49,2,1.5,True,54,male,Ph,fr,354,90,0,2,0,1,1.0,353.0,0.0,0.7267736,1.0,0.4807822483352262
Contrast Stuff,2022_Oct_14_1328,100,1200,1920,49,2,1.5,True,54,male,Ph,fr,355,90,0,2,1,1,1.0,354.0,1.0,0.4378956,1.0,0.4807822483352262
Contrast Stuff,2022_Oct_14_1328,100,1200,1920,49,2,1.5,True,54,male,Ph,fr,356,90,0,1,0,1,1.0,355.0,0.0,0.6039421,1.0,0.5203941169508742
Contrast Stuff,2022_Oct_14_1328,100,1200,1920,49,2,1.5,True,54,male,Ph,fr,357,90,0,2,0,1,1.0,356.0,0.0,0.642302,1.0,0.4807822483352262
Contrast Stuff,2022_Oct_14_1328,100,1200,1920,49,2,1.5,True,54,male,Ph,fr,358,90,0,1,1,1,1.0,357.0,1.0,0.6856819,1.0,0.5203941169508742
Contrast Stuff,2022_Oct_14_1328,100,1200,1920,49,2,1.5,True,54,male,Ph,fr,359,90,0,1,0,1,1.0,358.0,0.0,0.6184978,1.0,0.5101952250289417
Contrast Stuff,2022_Oct_14_1328,100,1200,1920,49,2,1.5,True,54,male,Ph,fr,360,90,0,2,1,1,1.0,359.0,1.0,0.4670599,1.0,0.4807822483352262
Contrast Stuff,2022_Oct_14_1328,100,1200,1920,49,2,1.5,True,54,male,Ph,fr,361,90,0,2,0,1,1.0,360.0,0.0,0.5666142,1.0,0.4713596856485354
Contrast Stuff,2022_Oct_14_1328,100,1200,1920,49,2,1.5,True,54,male,Ph,fr,362,90,0,2,0,1,1.0,361.0,0.0,0.8802514,1.0,0.4713596856485354
Contrast Stuff,2022_Oct_14_1328,100,1200,1920,49,2,1.5,True,54,male,Ph,fr,363,90,0,1,0,1,1.0,362.0,0.0,0.6119246,1.0,0.5101952250289417
Contrast Stuff,2022_Oct_14_1328,100,1200,1920,49,2,1.5,True,54,male,Ph,fr,364,90,0,1,1,1,1.0,363.0,1.0,0.7774369,1.0,0.5101952250289417
Contrast Stuff,2022_Oct_14_1328,100,1200,1920,49,2,1.5,True,54,male,Ph,fr,365,90,0,1,0,1,1.0,364.0,0.0,1.3572543,1.0,0.5001962150677132
Contrast Stuff,2022_Oct_14_1328,100,1200,1920,49,2,1.5,True,54,male,Ph,fr,366,90,0,2,1,1,1.0,365.0,0.0,2.9182136,0.0,0.3944468922240608
Contrast Stuff,2022_Oct_14_1328,100,1200,1920,49,2,1.5,True,54,male,Ph,fr,367,90,0,1,1,1,1.0,366.0,0.0,1.1982425,0.0,0.5001962150677132
Contrast Stuff,2022_Oct_14_1328,100,1200,1920,49,2,1.5,True,54,male,Ph,fr,368,90,0,2,0,1,1.0,367.0,0.0,0.729527,1.0,0.4713596856485354
Contrast Stuff,2022_Oct_14_1328,100,1200,1920,49,2,1.5,True,54,male,Ph,fr,369,90,0,2,0,1,1.0,368.0,0.0,0.8509301,1.0,0.46212179011187315
Contrast Stuff,2022_Oct_14_1328,100,1200,1920,49,2,1.5,True,54,male,Ph,fr,370,90,0,2,0,1,1.0,369.0,0.0,3.0070465,1.0,0.46212179011187315
Contrast Stuff,2022_Oct_14_1328,100,1200,1920,49,2,1.5,True,54,male,Ph,fr,371,90,0,1,1,1,1.0,370.0,1.0,0.8599702,1.0,0.5307968865089208
Contrast Stuff,2022_Oct_14_1328,100,1200,1920,49,2,1.5,True,54,male,Ph,fr,372,90,0,2,1,1,1.0,371.0,1.0,0.7373862,1.0,0.46212179011187315
Contrast Stuff,2022_Oct_14_1328,100,1200,1920,49,2,1.5,True,54,male,Ph,fr,373,90,0,2,0,1,1.0,372.0,1.0,0.735501,0.0,0.45306494254461693
Contrast Stuff,2022_Oct_14_1328,100,1200,1920,49,2,1.5,True,54,male,Ph,fr,374,90,0,2,1,1,1.0,373.0,1.0,0.7489224,1.0,0.4713596856485354
Contrast Stuff,2022_Oct_14_1328,100,1200,1920,49,2,1.5,True,54,male,Ph,fr,375,90,0,1,0,1,1.0,374.0,0.0,0.7929722,1.0,0.5203941169508742
Contrast Stuff,2022_Oct_14_1328,100,1200,1920,49,2,1.5,True,54,male,Ph,fr,376,90,0,2,0,1,1.0,375.0,0.0,0.873404,1.0,0.4713596856485354
Contrast Stuff,2022_Oct_14_1328,100,1200,1920,49,2,1.5,True,54,male,Ph,fr,377,90,0,2,1,1,1.0,376.0,0.0,1.12593,0.0,0.4713596856485354
Contrast Stuff,2022_Oct_14_1328,100,1200,1920,49,2,1.5,True,54,male,Ph,fr,378,90,0,1,0,1,1.0,377.0,0.0,0.7162204,1.0,0.5203941169508742
Contrast Stuff,2022_Oct_14_1328,100,1200,1920,49,2,1.5,True,54,male,Ph,fr,379,90,0,1,1,1,1.0,378.0,0.0,0.8224616,0.0,0.40233195469697436
Contrast Stuff,2022_Oct_14_1328,100,1200,1920,49,2,1.5,True,54,male,Ph,fr,380,90,0,1,0,1,1.0,379.0,0.0,0.7900897,1.0,0.5203941169508742
Contrast Stuff,2022_Oct_14_1328,100,1200,1920,49,2,1.5,True,54,male,Ph,fr,381,90,0,1,1,1,1.0,380.0,1.0,0.7277643,1.0,0.5101952250289417
Contrast Stuff,2022_Oct_14_1328,100,1200,1920,49,2,1.5,True,54,male,Ph,fr,382,90,0,1,1,1,1.0,381.0,1.0,1.8125696,1.0,0.5101952250289417
Contrast Stuff,2022_Oct_14_1328,100,1200,1920,49,2,1.5,True,54,male,Ph,fr,383,90,0,2,1,1,1.0,382.0,1.0,0.6825831,1.0,0.49039316970062474
Contrast Stuff,2022_Oct_14_1328,100,1200,1920,49,2,1.5,True,54,male,Ph,fr,384,90,0,2,1,1,1.0,383.0,1.0,0.6107309,1.0,0.4807822483352262
Contrast Stuff,2022_Oct_14_1328,100,1200,1920,49,2,1.5,True,54,male,Ph,fr,385,90,0,1,1,1,1.0,384.0,1.0,0.9616587,1.0,0.41857810191008316
Contrast Stuff,2022_Oct_14_1328,100,1200,1920,49,2,1.5,True,54,male,Ph,fr,386,90,0,2,0,1,1.0,385.0,1.0,2.4692912,0.0,0.4807822483352262
Contrast Stuff,2022_Oct_14_1328,100,1200,1920,49,2,1.5,True,54,male,Ph,fr,387,90,0,1,1,1,1.0,386.0,0.0,0.9184089,0.0,0.41037464094999004
Contrast Stuff,2022_Oct_14_1328,100,1200,1920,49,2,1.5,True,54,male,Ph,fr,388,90,0,2,1,1,1.0,387.0,1.0,0.5012979,1.0,0.5001962150677132
Contrast Stuff,2022_Oct_14_1328,100,1200,1920,49,2,1.5,True,54,male,Ph,fr,389,90,0,1,0,1,1.0,388.0,0.0,0.8491997,1.0,0.5101952250289417
Contrast Stuff,2022_Oct_14_1328,100,1200,1920,49,2,1.5,True,54,male,Ph,fr,390,90,0,2,1,1,1.0,389.0,1.0,0.5705287,1.0,0.49039316970062474
Contrast Stuff,2022_Oct_14_1328,100,1200,1920,49,2,1.5,True,54,male,Ph,fr,391,90,0,2,0,1,1.0,390.0,0.0,0.6078564,1.0,0.49039316970062474
Contrast Stuff,2022_Oct_14_1328,100,1200,1920,49,2,1.5,True,54,male,Ph,fr,392,90,0,2,0,1,1.0,391.0,1.0,1.0035897,0.0,0.49039316970062474
Contrast Stuff,2022_Oct_14_1328,100,1200,1920,49,2,1.5,True,54,male,Ph,fr,393,90,0,2,0,1,1.0,392.0,0.0,2.181821,1.0,0.5001962150677132
Contrast Stuff,2022_Oct_14_1328,100,1200,1920,49,2,1.5,True,54,male,Ph,fr,394,90,0,1,0,1,1.0,393.0,0.0,0.6893183,1.0,0.5001962150677132
Contrast Stuff,2022_Oct_14_1328,100,1200,1920,49,2,1.5,True,54,male,Ph,fr,395,90,0,1,0,1,1.0,394.0,0.0,0.5523328,1.0,0.42694555149181274
Contrast Stuff,2022_Oct_14_1328,100,1200,1920,49,2,1.5,True,54,male,Ph,fr,396,90,0,1,1,1,1.0,395.0,0.0,0.7309074,0.0,0.41857810191008316
Contrast Stuff,2022_Oct_14_1328,100,1200,1920,49,2,1.5,True,54,male,Ph,fr,397,90,0,1,0,1,1.0,396.0,0.0,0.6769715,1.0,0.5001962150677132
Contrast Stuff,2022_Oct_14_1328,100,1200,1920,49,2,1.5,True,54,male,Ph,fr,398,90,0,2,1,1,1.0,397.0,1.0,0.5965107,1.0,0.5001962150677132
Contrast Stuff,2022_Oct_14_1328,100,1200,1920,49,2,1.5,True,54,male,Ph,fr,399,90,0,1,0,1,1.0,398.0,0.0,0.9055718,1.0,0.49039316970062474
Contrast Stuff,2022_Oct_14_1328,100,1200,1920,49,2,1.5,True,54,male,Ph,fr,400,90,0,1,0,1,1.0,399.0,1.0,1.2814149,0.0,0.4807822483352262
Contrast Stuff,2022_Oct_14_1328,100,1200,1920,49,2,1.5,True,54,male,Ph,fr,401,361,0,2,0,3,1.0,400.0,0.0,0.9090245,1.0,0.3172726709880634
Contrast Stuff,2022_Oct_14_1328,100,1200,1920,49,2,1.5,True,54,male,Ph,fr,402,361,0,1,1,3,1.0,401.0,0.0,0.9476387,0.0,0.1618710017702884
Contrast Stuff,2022_Oct_14_1328,100,1200,1920,49,2,1.5,True,54,male,Ph,fr,403,361,0,1,1,3,1.0,402.0,1.0,1.6534688,1.0,0.17520762739864815
Contrast Stuff,2022_Oct_14_1328,100,1200,1920,49,2,1.5,True,54,male,Ph,fr,404,361,0,2,1,3,1.0,403.0,1.0,0.707529,1.0,0.3110546343581532
Contrast Stuff,2022_Oct_14_1328,100,1200,1920,49,2,1.5,True,54,male,Ph,fr,405,361,0,1,0,3,1.0,404.0,1.0,1.0735728,0.0,0.17177383828087872
Contrast Stuff,2022_Oct_14_1328,100,1200,1920,49,2,1.5,True,54,male,Ph,fr,406,361,0,1,1,3,1.0,405.0,0.0,1.0873536,0.0,0.18592636312377486
Contrast Stuff,2022_Oct_14_1328,100,1200,1920,49,2,1.5,True,54,male,Ph,fr,407,361,0,2,0,3,1.0,406.0,1.0,0.3057964,0.0,0.3110546343581532
Contrast Stuff,2022_Oct_14_1328,100,1200,1920,49,2,1.5,True,54,male,Ph,fr,408,361,0,1,0,3,1.0,407.0,0.0,1.4904311,1.0,0.20124492094022123
Contrast Stuff,2022_Oct_14_1328,100,1200,1920,49,2,1.5,True,54,male,Ph,fr,409,361,0,1,1,3,1.0,408.0,0.0,1.6952899,0.0,0.1973008425356974
Contrast Stuff,2022_Oct_14_1328,100,1200,1920,49,2,1.5,True,54,male,Ph,fr,410,361,0,1,0,3,1.0,409.0,0.0,0.7371535,1.0,0.21355654889620218
Contrast Stuff,2022_Oct_14_1328,100,1200,1920,49,2,1.5,True,54,male,Ph,fr,411,361,0,1,0,3,1.0,410.0,1.0,0.7875073,0.0,0.20937118228565132
Contrast Stuff,2022_Oct_14_1328,100,1200,1920,49,2,1.5,True,54,male,Ph,fr,412,361,0,1,1,3,1.0,411.0,0.0,1.8434442,0.0,0.2221799532546859
Contrast Stuff,2022_Oct_14_1328,100,1200,1920,49,2,1.5,True,54,male,Ph,fr,413,361,0,2,1,3,1.0,412.0,0.0,0.882671,0.0,0.3172726709880634
Contrast Stuff,2022_Oct_14_1328,100,1200,1920,49,2,1.5,True,54,male,Ph,fr,414,361,0,1,1,3,1.0,413.0,0.0,0.7513206,0.0,0.2357723306969045
Contrast Stuff,2022_Oct_14_1328,100,1200,1920,49,2,1.5,True,54,male,Ph,fr,415,361,0,2,1,3,1.0,414.0,0.0,0.8005256,0.0,0.33008412794392594
Contrast Stuff,2022_Oct_14_1328,100,1200,1920,49,2,1.5,True,54,male,Ph,fr,416,361,0,2,0,3,1.0,415.0,1.0,1.1680818,0.0,0.3366825674841127
Contrast Stuff,2022_Oct_14_1328,100,1200,1920,49,2,1.5,True,54,male,Ph,fr,417,361,0,1,0,3,1.0,416.0,0.0,0.7956421,1.0,0.25019625356806596
Contrast Stuff,2022_Oct_14_1328,100,1200,1920,49,2,1.5,True,54,male,Ph,fr,418,361,0,2,1,3,1.0,417.0,0.0,0.7832412,0.0,0.3434129109865918
Contrast Stuff,2022_Oct_14_1328,100,1200,1920,49,2,1.5,True,54,male,Ph,fr,419,361,0,2,0,3,1.0,418.0,1.0,1.1074843,0.0,0.3572799097214362
Contrast Stuff,2022_Oct_14_1328,100,1200,1920,49,2,1.5,True,54,male,Ph,fr,420,361,0,2,0,3,1.0,419.0,0.0,3.577859,1.0,0.3644219977033851
Contrast Stuff,2022_Oct_14_1328,100,1200,1920,49,2,1.5,True,54,male,Ph,fr,421,361,0,1,0,3,1.0,420.0,0.0,1.5067585,1.0,0.24529280737931128
Contrast Stuff,2022_Oct_14_1328,100,1200,1920,49,2,1.5,True,54,male,Ph,fr,422,361,0,2,1,3,1.0,421.0,0.0,0.86991,0.0,0.3644219977033851
Contrast Stuff,2022_Oct_14_1328,100,1200,1920,49,2,1.5,True,54,male,Ph,fr,423,361,0,2,1,3,1.0,422.0,0.0,0.7189982,0.0,0.3717068572752103
Contrast Stuff,2022_Oct_14_1328,100,1200,1920,49,2,1.5,True,54,male,Ph,fr,424,361,0,1,1,3,1.0,423.0,1.0,0.9445316,1.0,0.24529280737931128
Contrast Stuff,2022_Oct_14_1328,100,1200,1920,49,2,1.5,True,54,male,Ph,fr,425,361,0,1,1,3,1.0,424.0,0.0,2.4844544,0.0,0.2404854608890255
Contrast Stuff,2022_Oct_14_1328,100,1200,1920,49,2,1.5,True,54,male,Ph,fr,426,361,0,2,0,3,1.0,425.0,0.0,1.0332856,1.0,0.38671636435739903
Contrast Stuff,2022_Oct_14_1328,100,1200,1920,49,2,1.5,True,54,male,Ph,fr,427,361,0,1,1,3,1.0,426.0,0.0,0.6692037,0.0,0.25519772050509687
Contrast Stuff,2022_Oct_14_1328,100,1200,1920,49,2,1.5,True,54,male,Ph,fr,428,361,0,1,1,3,1.0,427.0,1.0,1.620243,1.0,0.2655025936014887
Contrast Stuff,2022_Oct_14_1328,100,1200,1920,49,2,1.5,True,54,male,Ph,fr,429,361,0,2,1,3,1.0,428.0,1.0,0.679606,1.0,0.3791373424660041
Contrast Stuff,2022_Oct_14_1328,100,1200,1920,49,2,1.5,True,54,male,Ph,fr,430,361,0,1,1,3,1.0,429.0,1.0,1.3998374,1.0,0.2602991676423322
Contrast Stuff,2022_Oct_14_1328,100,1200,1920,49,2,1.5,True,54,male,Ph,fr,431,361,0,1,1,3,1.0,430.0,1.0,0.7672458,1.0,0.2602991676423322
Contrast Stuff,2022_Oct_14_1328,100,1200,1920,49,2,1.5,True,54,male,Ph,fr,432,361,0,2,0,3,1.0,431.0,1.0,0.5053386,0.0,0.3791373424660041
Contrast Stuff,2022_Oct_14_1328,100,1200,1920,49,2,1.5,True,54,male,Ph,fr,433,361,0,2,1,3,1.0,432.0,1.0,0.7873582,1.0,0.38671636435739903
Contrast Stuff,2022_Oct_14_1328,100,1200,1920,49,2,1.5,True,54,male,Ph,fr,434,361,0,1,0,3,1.0,433.0,1.0,0.7652286,0.0,0.25519772050509687
Contrast Stuff,2022_Oct_14_1328,100,1200,1920,49,2,1.5,True,54,male,Ph,fr,435,361,0,1,0,3,1.0,434.0,1.0,0.9081424,0.0,0.2655025936014887
Contrast Stuff,2022_Oct_14_1328,100,1200,1920,49,2,1.5,True,54,male,Ph,fr,436,361,0,2,0,3,1.0,435.0,0.0,1.2944735,1.0,0.38671636435739903
Contrast Stuff,2022_Oct_14_1328,100,1200,1920,49,2,1.5,True,54,male,Ph,fr,437,361,0,2,0,3,1.0,436.0,0.0,1.7877288,1.0,0.38671636435739903
Contrast Stuff,2022_Oct_14_1328,100,1200,1920,49,2,1.5,True,54,male,Ph,fr,438,361,0,1,0,3,1.0,437.0,1.0,7.9527183,0.0,0.27622357703508327
Contrast Stuff,2022_Oct_14_1328,100,1200,1920,49,2,1.5,True,54,male,Ph,fr,439,361,0,1,0,3,1.0,438.0,0.0,1.3685004,1.0,0.28737747332359304
Contrast Stuff,2022_Oct_14_1328,100,1200,1920,49,2,1.5,True,54,male,Ph,fr,440,361,0,1,1,3,1.0,439.0,1.0,2.378003,1.0,0.28737747332359304
Contrast Stuff,2022_Oct_14_1328,100,1200,1920,49,2,1.5,True,54,male,Ph,fr,441,361,0,1,0,3,1.0,440.0,0.0,0.9988034,1.0,0.28174533472756413
Contrast Stuff,2022_Oct_14_1328,100,1200,1920,49,2,1.5,True,54,male,Ph,fr,442,361,0,1,1,3,1.0,441.0,1.0,0.518072,1.0,0.28174533472756413
Contrast Stuff,2022_Oct_14_1328,100,1200,1920,49,2,1.5,True,54,male,Ph,fr,443,361,0,2,1,3,1.0,442.0,1.0,0.6424625,1.0,0.3791373424660041
Contrast Stuff,2022_Oct_14_1328,100,1200,1920,49,2,1.5,True,54,male,Ph,fr,444,361,0,1,1,3,1.0,443.0,1.0,0.5012702,1.0,0.27622357703508327
Contrast Stuff,2022_Oct_14_1328,100,1200,1920,49,2,1.5,True,54,male,Ph,fr,445,361,0,2,1,3,1.0,444.0,1.0,0.442657,1.0,0.3791373424660041
Contrast Stuff,2022_Oct_14_1328,100,1200,1920,49,2,1.5,True,54,male,Ph,fr,446,361,0,1,0,3,1.0,445.0,0.0,0.8893114,1.0,0.27622357703508327
Contrast Stuff,2022_Oct_14_1328,100,1200,1920,49,2,1.5,True,54,male,Ph,fr,447,361,0,1,0,3,1.0,446.0,0.0,0.7008782,1.0,0.27622357703508327
Contrast Stuff,2022_Oct_14_1328,100,1200,1920,49,2,1.5,True,54,male,Ph,fr,448,361,0,1,1,3,1.0,447.0,0.0,0.6837968,0.0,0.2708100369570805
Contrast Stuff,2022_Oct_14_1328,100,1200,1920,49,2,1.5,True,54,male,Ph,fr,449,361,0,2,1,3,1.0,448.0,1.0,0.4097649,1.0,0.3791373424660041
Contrast Stuff,2022_Oct_14_1328,100,1200,1920,49,2,1.5,True,54,male,Ph,fr,450,361,0,2,0,3,1.0,449.0,0.0,0.990488,1.0,0.3791373424660041
Contrast Stuff,2022_Oct_14_1328,100,1200,1920,49,2,1.5,True,54,male,Ph,fr,451,361,0,2,1,3,1.0,450.0,1.0,0.6047545,1.0,0.3717068572752103
Contrast Stuff,2022_Oct_14_1328,100,1200,1920,49,2,1.5,True,54,male,Ph,fr,452,361,0,1,0,3,1.0,451.0,0.0,0.8321426,1.0,0.28174533472756413
Contrast Stuff,2022_Oct_14_1328,100,1200,1920,49,2,1.5,True,54,male,Ph,fr,453,361,0,2,1,3,1.0,452.0,1.0,0.566143,1.0,0.3717068572752103
Contrast Stuff,2022_Oct_14_1328,100,1200,1920,49,2,1.5,True,54,male,Ph,fr,454,361,0,1,0,3,1.0,453.0,0.0,0.7189436,1.0,0.28174533472756413
Contrast Stuff,2022_Oct_14_1328,100,1200,1920,49,2,1.5,True,54,male,Ph,fr,455,361,0,1,0,3,1.0,454.0,0.0,0.7035591,1.0,0.27622357703508327
Contrast Stuff,2022_Oct_14_1328,100,1200,1920,49,2,1.5,True,54,male,Ph,fr,456,361,0,2,0,3,1.0,455.0,0.0,0.6264365,1.0,0.3717068572752103
Contrast Stuff,2022_Oct_14_1328,100,1200,1920,49,2,1.5,True,54,male,Ph,fr,457,361,0,2,0,3,1.0,456.0,0.0,0.4988504,1.0,0.3644219977033851
Contrast Stuff,2022_Oct_14_1328,100,1200,1920,49,2,1.5,True,54,male,Ph,fr,458,361,0,2,0,3,1.0,457.0,0.0,0.4173554,1.0,0.3644219977033851
Contrast Stuff,2022_Oct_14_1328,100,1200,1920,49,2,1.5,True,54,male,Ph,fr,459,361,0,1,1,3,1.0,458.0,0.0,0.4250138,0.0,0.27622357703508327
Contrast Stuff,2022_Oct_14_1328,100,1200,1920,49,2,1.5,True,54,male,Ph,fr,460,361,0,1,0,3,1.0,459.0,0.0,1.2877288,1.0,0.28737747332359304
Contrast Stuff,2022_Oct_14_1328,100,1200,1920,49,2,1.5,True,54,male,Ph,fr,461,361,0,1,1,3,1.0,460.0,1.0,0.7305248,1.0,0.28174533472756413
Contrast Stuff,2022_Oct_14_1328,100,1200,1920,49,2,1.5,True,54,male,Ph,fr,462,361,0,2,0,3,1.0,461.0,1.0,0.2946258,0.0,0.3572799097214362
Contrast Stuff,2022_Oct_14_1328,100,1200,1920,49,2,1.5,True,54,male,Ph,fr,463,361,0,2,1,3,1.0,462.0,1.0,0.72503,1.0,0.3717068572752103
Contrast Stuff,2022_Oct_14_1328,100,1200,1920,49,2,1.5,True,54,male,Ph,fr,464,361,0,1,0,3,1.0,463.0,0.0,0.5449001,1.0,0.28174533472756413
Contrast Stuff,2022_Oct_14_1328,100,1200,1920,49,2,1.5,True,54,male,Ph,fr,465,361,0,2,0,3,1.0,464.0,0.0,0.8146061,1.0,0.3717068572752103
Contrast Stuff,2022_Oct_14_1328,100,1200,1920,49,2,1.5,True,54,male,Ph,fr,466,361,0,1,0,3,1.0,465.0,0.0,0.8609622,1.0,0.28174533472756413
Contrast Stuff,2022_Oct_14_1328,100,1200,1920,49,2,1.5,True,54,male,Ph,fr,467,361,0,2,1,3,1.0,466.0,1.0,0.6994214,1.0,0.3644219977033851
Contrast Stuff,2022_Oct_14_1328,100,1200,1920,49,2,1.5,True,54,male,Ph,fr,468,361,0,1,1,3,1.0,467.0,1.0,1.2849962,1.0,0.27622357703508327
Contrast Stuff,2022_Oct_14_1328,100,1200,1920,49,2,1.5,True,54,male,Ph,fr,469,361,0,2,1,3,1.0,468.0,1.0,1.0990049,1.0,0.3644219977033851
Contrast Stuff,2022_Oct_14_1328,100,1200,1920,49,2,1.5,True,54,male,Ph,fr,470,361,0,1,1,3,1.0,469.0,1.0,0.4810858,1.0,0.27622357703508327
Contrast Stuff,2022_Oct_14_1328,100,1200,1920,49,2,1.5,True,54,male,Ph,fr,471,361,0,2,0,3,1.0,470.0,0.0,0.9489217,1.0,0.3572799097214362
Contrast Stuff,2022_Oct_14_1328,100,1200,1920,49,2,1.5,True,54,male,Ph,fr,472,361,0,2,0,3,1.0,471.0,0.0,0.618801,1.0,0.3572799097214362
Contrast Stuff,2022_Oct_14_1328,100,1200,1920,49,2,1.5,True,54,male,Ph,fr,473,361,0,2,0,3,1.0,472.0,0.0,2.3753989,1.0,0.3502777952346755
Contrast Stuff,2022_Oct_14_1328,100,1200,1920,49,2,1.5,True,54,male,Ph,fr,474,361,0,2,1,3,1.0,473.0,1.0,6.1767077,1.0,0.3502777952346755
Contrast Stuff,2022_Oct_14_1328,100,1200,1920,49,2,1.5,True,54,male,Ph,fr,475,361,0,2,0,3,1.0,474.0,0.0,0.5866476,1.0,0.3434129109865918
Contrast Stuff,2022_Oct_14_1328,100,1200,1920,49,2,1.5,True,54,male,Ph,fr,476,361,0,2,0,3,1.0,475.0,0.0,0.6484832,1.0,0.3434129109865918
Contrast Stuff,2022_Oct_14_1328,100,1200,1920,49,2,1.5,True,54,male,Ph,fr,477,361,0,2,1,3,1.0,476.0,1.0,0.6361017,1.0,0.3366825674841127
Contrast Stuff,2022_Oct_14_1328,100,1200,1920,49,2,1.5,True,54,male,Ph,fr,478,361,0,2,1,3,1.0,477.0,1.0,0.9582873,1.0,0.3366825674841127
Contrast Stuff,2022_Oct_14_1328,100,1200,1920,49,2,1.5,True,54,male,Ph,fr,479,361,0,1,0,3,1.0,478.0,1.0,1.1458957,0.0,0.2708100369570805
Contrast Stuff,2022_Oct_14_1328,100,1200,1920,49,2,1.5,True,54,male,Ph,fr,480,361,0,2,1,3,1.0,479.0,1.0,0.7845956,1.0,0.3366825674841127
Contrast Stuff,2022_Oct_14_1328,100,1200,1920,49,2,1.5,True,54,male,Ph,fr,481,361,0,2,0,3,1.0,480.0,0.0,0.8555168,1.0,0.33008412794392594
Contrast Stuff,2022_Oct_14_1328,100,1200,1920,49,2,1.5,True,54,male,Ph,fr,482,361,0,1,1,3,1.0,481.0,1.0,0.3631572,1.0,0.28174533472756413
Contrast Stuff,2022_Oct_14_1328,100,1200,1920,49,2,1.5,True,54,male,Ph,fr,483,361,0,1,1,3,1.0,482.0,1.0,0.5136314,1.0,0.28174533472756413
Contrast Stuff,2022_Oct_14_1328,100,1200,1920,49,2,1.5,True,54,male,Ph,fr,484,361,0,2,1,3,1.0,483.0,1.0,0.5345535,1.0,0.33008412794392594
Contrast Stuff,2022_Oct_14_1328,100,1200,1920,49,2,1.5,True,54,male,Ph,fr,485,361,0,1,0,3,1.0,484.0,0.0,0.6380422,1.0,0.28174533472756413
Contrast Stuff,2022_Oct_14_1328,100,1200,1920,49,2,1.5,True,54,male,Ph,fr,486,361,0,1,1,3,1.0,485.0,1.0,0.3691049,1.0,0.28174533472756413
Contrast Stuff,2022_Oct_14_1328,100,1200,1920,49,2,1.5,True,54,male,Ph,fr,487,361,0,2,0,3,1.0,486.0,0.0,0.4424813,1.0,0.33008412794392594
Contrast Stuff,2022_Oct_14_1328,100,1200,1920,49,2,1.5,True,54,male,Ph,fr,488,361,0,1,0,3,1.0,487.0,0.0,0.7170593,1.0,0.25519772050509687
Contrast Stuff,2022_Oct_14_1328,100,1200,1920,49,2,1.5,True,54,male,Ph,fr,489,361,0,1,1,3,1.0,488.0,0.0,0.713649,0.0,0.25519772050509687
Contrast Stuff,2022_Oct_14_1328,100,1200,1920,49,2,1.5,True,54,male,Ph,fr,490,361,0,1,0,3,1.0,489.0,0.0,1.387384,1.0,0.28174533472756413
Contrast Stuff,2022_Oct_14_1328,100,1200,1920,49,2,1.5,True,54,male,Ph,fr,491,361,0,1,0,3,1.0,490.0,0.0,0.6481845,1.0,0.28174533472756413
Contrast Stuff,2022_Oct_14_1328,100,1200,1920,49,2,1.5,True,54,male,Ph,fr,492,361,0,1,1,3,1.0,491.0,1.0,0.5658464,1.0,0.28174533472756413
Contrast Stuff,2022_Oct_14_1328,100,1200,1920,49,2,1.5,True,54,male,Ph,fr,493,361,0,2,1,3,1.0,492.0,1.0,0.4985581,1.0,0.32361500725945164
Contrast Stuff,2022_Oct_14_1328,100,1200,1920,49,2,1.5,True,54,male,Ph,fr,494,361,0,1,1,3,1.0,493.0,1.0,0.7767721,1.0,0.27622357703508327
Contrast Stuff,2022_Oct_14_1328,100,1200,1920,49,2,1.5,True,54,male,Ph,fr,495,361,0,2,1,3,1.0,494.0,1.0,0.4735995,1.0,0.32361500725945164
Contrast Stuff,2022_Oct_14_1328,100,1200,1920,49,2,1.5,True,54,male,Ph,fr,496,361,0,2,0,3,1.0,495.0,0.0,1.2963476,1.0,0.32361500725945164
Contrast Stuff,2022_Oct_14_1328,100,1200,1920,49,2,1.5,True,54,male,Ph,fr,497,361,0,1,0,3,1.0,496.0,0.0,0.6838293,1.0,0.25519772050509687
Contrast Stuff,2022_Oct_14_1328,100,1200,1920,49,2,1.5,True,54,male,Ph,fr,498,361,0,2,1,3,1.0,497.0,1.0,0.5890306,1.0,0.3172726709880634
Contrast Stuff,2022_Oct_14_1328,100,1200,1920,49,2,1.5,True,54,male,Ph,fr,499,361,0,2,0,3,1.0,498.0,0.0,1.2285626,1.0,0.3172726709880634
Contrast Stuff,2022_Oct_14_1328,100,1200,1920,49,2,1.5,True,54,male,Ph,fr,500,361,0,2,0,3,1.0,499.0,0.0,0.6859561,1.0,0.3110546343581532
Contrast Stuff,2022_Oct_14_1328,100,1200,1920,49,2,1.5,True,54,male,Ph,fr,501,361,0,1,0,3,1.0,500.0,0.0,0.6465073,1.0,0.25519772050509687
Contrast Stuff,2022_Oct_14_1328,100,1200,1920,49,2,1.5,True,54,male,Ph,fr,502,361,0,2,1,3,1.0,501.0,1.0,0.6168856,1.0,0.3110546343581532
Contrast Stuff,2022_Oct_14_1328,100,1200,1920,49,2,1.5,True,54,male,Ph,fr,503,361,0,2,1,3,1.0,502.0,1.0,0.5737847,1.0,0.30495846129566156
Contrast Stuff,2022_Oct_14_1328,100,1200,1920,49,2,1.5,True,54,male,Ph,fr,504,361,0,1,1,3,1.0,503.0,1.0,0.5194132,1.0,0.25019625356806596
Contrast Stuff,2022_Oct_14_1328,100,1200,1920,49,2,1.5,True,54,male,Ph,fr,505,361,0,1,1,3,1.0,504.0,1.0,0.5131427,1.0,0.25019625356806596
Contrast Stuff,2022_Oct_14_1328,100,1200,1920,49,2,1.5,True,54,male,Ph,fr,506,361,0,2,0,3,1.0,505.0,0.0,0.6202945,1.0,0.2989817634696808
Contrast Stuff,2022_Oct_14_1328,100,1200,1920,49,2,1.5,True,54,male,Ph,fr,507,361,0,1,1,3,1.0,506.0,0.0,0.6903933,0.0,0.24529280737931128
Contrast Stuff,2022_Oct_14_1328,100,1200,1920,49,2,1.5,True,54,male,Ph,fr,508,361,0,1,1,3,1.0,507.0,1.0,0.7788023,1.0,0.25519772050509687
Contrast Stuff,2022_Oct_14_1328,100,1200,1920,49,2,1.5,True,54,male,Ph,fr,509,361,0,2,1,3,1.0,508.0,1.0,0.5518868,1.0,0.2931221993567684
Contrast Stuff,2022_Oct_14_1328,100,1200,1920,49,2,1.5,True,54,male,Ph,fr,510,361,0,1,1,3,1.0,509.0,1.0,0.6226149,1.0,0.25019625356806596
Contrast Stuff,2022_Oct_14_1328,100,1200,1920,49,2,1.5,True,54,male,Ph,fr,511,361,0,1,1,3,1.0,510.0,1.0,0.4417618,1.0,0.24529280737931128
Contrast Stuff,2022_Oct_14_1328,100,1200,1920,49,2,1.5,True,54,male,Ph,fr,512,361,0,2,0,3,1.0,511.0,0.0,0.8915836,1.0,0.28174533472756413
Contrast Stuff,2022_Oct_14_1328,100,1200,1920,49,2,1.5,True,54,male,Ph,fr,513,361,0,2,1,3,1.0,512.0,1.0,0.5052161,1.0,0.27622357703508327
Contrast Stuff,2022_Oct_14_1328,100,1200,1920,49,2,1.5,True,54,male,Ph,fr,514,361,0,1,0,3,1.0,513.0,0.0,1.4649683,1.0,0.24529280737931128
Contrast Stuff,2022_Oct_14_1328,100,1200,1920,49,2,1.5,True,54,male,Ph,fr,515,361,0,1,0,3,1.0,514.0,0.0,0.662095,1.0,0.2404854608890255
Contrast Stuff,2022_Oct_14_1328,100,1200,1920,49,2,1.5,True,54,male,Ph,fr,516,361,0,2,0,3,1.0,515.0,0.0,0.6279687,1.0,0.2708100369570805
Contrast Stuff,2022_Oct_14_1328,100,1200,1920,49,2,1.5,True,54,male,Ph,fr,517,361,0,2,0,3,1.0,516.0,0.0,0.5780796,1.0,0.2655025936014887
Contrast Stuff,2022_Oct_14_1328,100,1200,1920,49,2,1.5,True,54,male,Ph,fr,518,361,0,1,0,3,1.0,517.0,0.0,0.6097258,1.0,0.2404854608890255
Contrast Stuff,2022_Oct_14_1328,100,1200,1920,49,2,1.5,True,54,male,Ph,fr,519,361,0,1,0,3,1.0,518.0,0.0,0.58904,1.0,0.2357723306969045
Contrast Stuff,2022_Oct_14_1328,100,1200,1920,49,2,1.5,True,54,male,Ph,fr,520,361,0,1,1,3,1.0,519.0,1.0,0.7002745,1.0,0.2357723306969045
Contrast Stuff,2022_Oct_14_1328,100,1200,1920,49,2,1.5,True,54,male,Ph,fr,521,361,0,1,0,3,1.0,520.0,0.0,0.6930071,1.0,0.23115157031427513
Contrast Stuff,2022_Oct_14_1328,100,1200,1920,49,2,1.5,True,54,male,Ph,fr,522,361,0,1,1,3,1.0,521.0,1.0,0.5808709,1.0,0.23115157031427513
Contrast Stuff,2022_Oct_14_1328,100,1200,1920,49,2,1.5,True,54,male,Ph,fr,523,361,0,2,1,3,1.0,522.0,1.0,0.7189058,1.0,0.2602991676423322
Contrast Stuff,2022_Oct_14_1328,100,1200,1920,49,2,1.5,True,54,male,Ph,fr,524,361,0,1,1,3,1.0,523.0,1.0,4.1577272,1.0,0.2266213694406883
Contrast Stuff,2022_Oct_14_1328,100,1200,1920,49,2,1.5,True,54,male,Ph,fr,525,361,0,2,1,3,1.0,524.0,1.0,0.5908394,1.0,0.25519772050509687
Contrast Stuff,2022_Oct_14_1328,100,1200,1920,49,2,1.5,True,54,male,Ph,fr,526,361,0,1,0,3,1.0,525.0,0.0,0.5140238,1.0,0.2221799532546859
Contrast Stuff,2022_Oct_14_1328,100,1200,1920,49,2,1.5,True,54,male,Ph,fr,527,361,0,1,0,3,1.0,526.0,0.0,0.5866809,1.0,0.217825581718471
Contrast Stuff,2022_Oct_14_1328,100,1200,1920,49,2,1.5,True,54,male,Ph,fr,528,361,0,1,1,3,1.0,527.0,1.0,0.5335902,1.0,0.21355654889620218
Contrast Stuff,2022_Oct_14_1328,100,1200,1920,49,2,1.5,True,54,male,Ph,fr,529,361,0,2,1,3,1.0,528.0,1.0,0.5115931,1.0,0.25019625356806596
Contrast Stuff,2022_Oct_14_1328,100,1200,1920,49,2,1.5,True,54,male,Ph,fr,530,361,0,2,0,3,1.0,529.0,0.0,0.746085,1.0,0.2404854608890255
Contrast Stuff,2022_Oct_14_1328,100,1200,1920,49,2,1.5,True,54,male,Ph,fr,531,361,0,2,1,3,1.0,530.0,1.0,0.4928881,1.0,0.2357723306969045
Contrast Stuff,2022_Oct_14_1328,100,1200,1920,49,2,1.5,True,54,male,Ph,fr,532,361,0,1,0,3,1.0,531.0,0.0,0.8497885,1.0,0.20937118228565132
Contrast Stuff,2022_Oct_14_1328,100,1200,1920,49,2,1.5,True,54,male,Ph,fr,533,361,0,2,1,3,1.0,532.0,1.0,1.1318167,1.0,0.23115157031427513
Contrast Stuff,2022_Oct_14_1328,100,1200,1920,49,2,1.5,True,54,male,Ph,fr,534,361,0,1,0,3,1.0,533.0,0.0,2.4698286,1.0,0.20526784216295682
Contrast Stuff,2022_Oct_14_1328,100,1200,1920,49,2,1.5,True,54,male,Ph,fr,535,361,0,1,0,3,1.0,534.0,0.0,0.6436873,1.0,0.20124492094022123
Contrast Stuff,2022_Oct_14_1328,100,1200,1920,49,2,1.5,True,54,male,Ph,fr,536,361,0,2,0,3,1.0,535.0,0.0,1.0271386,1.0,0.2221799532546859
Contrast Stuff,2022_Oct_14_1328,100,1200,1920,49,2,1.5,True,54,male,Ph,fr,537,361,0,2,0,3,1.0,536.0,0.0,0.5418537,1.0,0.21355654889620218
Contrast Stuff,2022_Oct_14_1328,100,1200,1920,49,2,1.5,True,54,male,Ph,fr,538,361,0,2,0,3,1.0,537.0,0.0,0.3315787,1.0,0.20937118228565132
Contrast Stuff,2022_Oct_14_1328,100,1200,1920,49,2,1.5,True,54,male,Ph,fr,539,361,0,1,1,3,1.0,538.0,0.0,0.3537416,0.0,0.19343406175631772
Contrast Stuff,2022_Oct_14_1328,100,1200,1920,49,2,1.5,True,54,male,Ph,fr,540,361,0,1,0,3,1.0,539.0,0.0,0.5895491,1.0,0.20526784216295682
Contrast Stuff,2022_Oct_14_1328,100,1200,1920,49,2,1.5,True,54,male,Ph,fr,541,361,0,1,1,3,1.0,540.0,1.0,0.7115922,1.0,0.20124492094022123
Contrast Stuff,2022_Oct_14_1328,100,1200,1920,49,2,1.5,True,54,male,Ph,fr,542,361,0,2,0,3,1.0,541.0,0.0,0.6281426,1.0,0.20124492094022123
Contrast Stuff,2022_Oct_14_1328,100,1200,1920,49,2,1.5,True,54,male,Ph,fr,543,361,0,2,1,3,1.0,542.0,1.0,0.5092097,1.0,0.19343406175631772
Contrast Stuff,2022_Oct_14_1328,100,1200,1920,49,2,1.5,True,54,male,Ph,fr,544,361,0,1,0,3,1.0,543.0,0.0,0.4712692,1.0,0.19343406175631772
Contrast Stuff,2022_Oct_14_1328,100,1200,1920,49,2,1.5,True,54,male,Ph,fr,545,361,0,2,0,3,1.0,544.0,0.0,0.7723682,1.0,0.18592636312377486
Contrast Stuff,2022_Oct_14_1328,100,1200,1920,49,2,1.5,True,54,male,Ph,fr,546,361,0,1,0,3,1.0,545.0,0.0,0.5604365,1.0,0.18964306369232664
Contrast Stuff,2022_Oct_14_1328,100,1200,1920,49,2,1.5,True,54,male,Ph,fr,547,361,0,2,1,3,1.0,546.0,1.0,0.6570345,1.0,0.17871005856239663
Contrast Stuff,2022_Oct_14_1328,100,1200,1920,49,2,1.5,True,54,male,Ph,fr,548,361,0,1,1,3,1.0,547.0,1.0,0.6960722,1.0,0.18228250393864812
Contrast Stuff,2022_Oct_14_1328,100,1200,1920,49,2,1.5,True,54,male,Ph,fr,549,361,0,2,1,3,1.0,548.0,1.0,0.4104051,1.0,0.16840734593483328
Contrast Stuff,2022_Oct_14_1328,100,1200,1920,49,2,1.5,True,54,male,Ph,fr,550,361,0,1,1,3,1.0,549.0,1.0,0.4063629,1.0,0.17520762739864815
Contrast Stuff,2022_Oct_14_1328,100,1200,1920,49,2,1.5,True,54,male,Ph,fr,551,361,0,2,0,3,1.0,550.0,0.0,0.7187249,1.0,0.1618710017702884
Contrast Stuff,2022_Oct_14_1328,100,1200,1920,49,2,1.5,True,54,male,Ph,fr,552,361,0,2,0,3,1.0,551.0,0.0,0.6231617,1.0,0.1555883507852197
Contrast Stuff,2022_Oct_14_1328,100,1200,1920,49,2,1.5,True,54,male,Ph,fr,553,361,0,2,0,3,1.0,552.0,0.0,0.435183,1.0,0.14661861467057924
Contrast Stuff,2022_Oct_14_1328,100,1200,1920,49,2,1.5,True,54,male,Ph,fr,554,361,0,2,1,3,1.0,553.0,1.0,0.5053838,1.0,0.14092795004371353
Contrast Stuff,2022_Oct_14_1328,100,1200,1920,49,2,1.5,True,54,male,Ph,fr,555,361,0,2,0,3,1.0,554.0,0.0,0.6374507,1.0,0.1328033924101259
Contrast Stuff,2022_Oct_14_1328,100,1200,1920,49,2,1.5,True,54,male,Ph,fr,556,361,0,2,0,3,1.0,555.0,0.0,0.6582367,1.0,0.1276489338905576
Contrast Stuff,2022_Oct_14_1328,100,1200,1920,49,2,1.5,True,54,male,Ph,fr,557,361,0,2,1,3,1.0,556.0,1.0,0.5297008,1.0,0.12028991731550513
Contrast Stuff,2022_Oct_14_1328,100,1200,1920,49,2,1.5,True,54,male,Ph,fr,558,361,0,2,1,3,1.0,557.0,1.0,0.5304923,1.0,0.1156211405781588
Contrast Stuff,2022_Oct_14_1328,100,1200,1920,49,2,1.5,True,54,male,Ph,fr,559,361,0,1,0,3,1.0,558.0,0.0,0.4352469,1.0,0.16840734593483328
Contrast Stuff,2022_Oct_14_1328,100,1200,1920,49,2,1.5,True,54,male,Ph,fr,560,361,0,2,1,3,1.0,559.0,1.0,0.4603412,1.0,0.10895553152050205
Contrast Stuff,2022_Oct_14_1328,100,1200,1920,49,2,1.5,True,54,male,Ph,fr,561,0,0,2,1,2,1.0,560.0,1.0,1.6271011,1.0,0.10895553152050205
Contrast Stuff,2022_Oct_14_1328,100,1200,1920,49,2,1.5,True,54,male,Ph,fr,562,0,0,2,0,2,1.0,561.0,1.0,1.0053442,0.0,0.10682017746080334
Contrast Stuff,2022_Oct_14_1328,100,1200,1920,49,2,1.5,True,54,male,Ph,fr,563,0,0,2,1,2,1.0,562.0,1.0,0.6443575,1.0,0.11113357168191533
Contrast Stuff,2022_Oct_14_1328,100,1200,1920,49,2,1.5,True,54,male,Ph,fr,564,0,0,1,0,2,1.0,563.0,1.0,0.6718137,0.0,0.06137134143349693
Contrast Stuff,2022_Oct_14_1328,100,1200,1920,49,2,1.5,True,54,male,Ph,fr,565,0,0,1,1,2,1.0,564.0,1.0,0.5260008,1.0,0.06384951358948564
Contrast Stuff,2022_Oct_14_1328,100,1200,1920,49,2,1.5,True,54,male,Ph,fr,566,0,0,2,0,2,1.0,565.0,1.0,0.279045,0.0,0.10895553152050205
Contrast Stuff,2022_Oct_14_1328,100,1200,1920,49,2,1.5,True,54,male,Ph,fr,567,0,0,2,0,2,1.0,566.0,1.0,1.0324451,0.0,0.11335515124769421
Contrast Stuff,2022_Oct_14_1328,100,1200,1920,49,2,1.5,True,54,male,Ph,fr,568,0,0,1,1,2,1.0,567.0,1.0,0.5593946,1.0,0.06259816529949601
Contrast Stuff,2022_Oct_14_1328,100,1200,1920,49,2,1.5,True,54,male,Ph,fr,569,0,0,2,0,2,1.0,568.0,0.0,0.9112933,1.0,0.11793242743228484
Contrast Stuff,2022_Oct_14_1328,100,1200,1920,49,2,1.5,True,54,male,Ph,fr,570,0,0,2,1,2,1.0,569.0,1.0,0.4466205,1.0,0.1156211405781588
Contrast Stuff,2022_Oct_14_1328,100,1200,1920,49,2,1.5,True,54,male,Ph,fr,571,0,0,1,1,2,1.0,570.0,1.0,0.3599773,1.0,0.06137134143349693
Contrast Stuff,2022_Oct_14_1328,100,1200,1920,49,2,1.5,True,54,male,Ph,fr,572,0,0,2,1,2,1.0,571.0,0.0,0.1876662,0.0,0.11335515124769421
Contrast Stuff,2022_Oct_14_1328,100,1200,1920,49,2,1.5,True,54,male,Ph,fr,573,0,0,1,0,2,1.0,572.0,1.0,0.2556812,0.0,0.06137134143349693
Contrast Stuff,2022_Oct_14_1328,100,1200,1920,49,2,1.5,True,54,male,Ph,fr,574,0,0,1,1,2,1.0,573.0,1.0,1.1480446,1.0,0.06259816529949601
Contrast Stuff,2022_Oct_14_1328,100,1200,1920,49,2,1.5,True,54,male,Ph,fr,575,0,0,2,0,2,1.0,574.0,0.0,0.6524879,1.0,0.11793242743228484
Contrast Stuff,2022_Oct_14_1328,100,1200,1920,49,2,1.5,True,54,male,Ph,fr,576,0,0,2,0,2,1.0,575.0,1.0,0.5578707,0.0,0.1156211405781588
Contrast Stuff,2022_Oct_14_1328,100,1200,1920,49,2,1.5,True,54,male,Ph,fr,577,0,0,2,1,2,1.0,576.0,1.0,0.5889166,1.0,0.12269453383446513
Contrast Stuff,2022_Oct_14_1328,100,1200,1920,49,2,1.5,True,54,male,Ph,fr,578,0,0,1,1,2,1.0,577.0,1.0,0.4836151,1.0,0.06137134143349693
Contrast Stuff,2022_Oct_14_1328,100,1200,1920,49,2,1.5,True,54,male,Ph,fr,579,0,0,1,0,2,1.0,578.0,1.0,0.8767862,0.0,0.06137134143349693
Contrast Stuff,2022_Oct_14_1328,100,1200,1920,49,2,1.5,True,54,male,Ph,fr,580,0,0,2,0,2,1.0,579.0,0.0,1.5516318,1.0,0.12028991731550513
Contrast Stuff,2022_Oct_14_1328,100,1200,1920,49,2,1.5,True,54,male,Ph,fr,581,0,0,1,1,2,1.0,580.0,0.0,1.1953915,0.0,0.06259816529949601
Contrast Stuff,2022_Oct_14_1328,100,1200,1920,49,2,1.5,True,54,male,Ph,fr,582,0,0,1,0,2,1.0,581.0,1.0,0.2162003,0.0,0.07629946451005658
Contrast Stuff,2022_Oct_14_1328,100,1200,1920,49,2,1.5,True,54,male,Ph,fr,583,0,0,1,1,2,1.0,582.0,1.0,3.0274715,1.0,0.07938043364074708
Contrast Stuff,2022_Oct_14_1328,100,1200,1920,49,2,1.5,True,54,male,Ph,fr,584,0,0,2,0,2,1.0,583.0,1.0,0.6954465,0.0,0.11793242743228484
Contrast Stuff,2022_Oct_14_1328,100,1200,1920,49,2,1.5,True,54,male,Ph,fr,585,0,0,1,1,2,1.0,584.0,1.0,0.7657137,1.0,0.07938043364074708
Contrast Stuff,2022_Oct_14_1328,100,1200,1920,49,2,1.5,True,54,male,Ph,fr,586,0,0,1,1,2,1.0,585.0,1.0,0.5050482,1.0,0.0778247041713946
Contrast Stuff,2022_Oct_14_1328,100,1200,1920,49,2,1.5,True,54,male,Ph,fr,587,0,0,2,0,2,1.0,586.0,1.0,0.3659674,0.0,0.12514721905886855
Contrast Stuff,2022_Oct_14_1328,100,1200,1920,49,2,1.5,True,54,male,Ph,fr,588,0,0,1,1,2,1.0,587.0,0.0,0.7330508,0.0,0.0778247041713946
Contrast Stuff,2022_Oct_14_1328,100,1200,1920,49,2,1.5,True,54,male,Ph,fr,589,0,0,2,0,2,1.0,588.0,1.0,0.5962752,0.0,0.15253906809296364
Contrast Stuff,2022_Oct_14_1328,100,1200,1920,49,2,1.5,True,54,male,Ph,fr,590,0,0,1,1,2,1.0,589.0,0.0,0.9437606,0.0,0.08096726241471731
Contrast Stuff,2022_Oct_14_1328,100,1200,1920,49,2,1.5,True,54,male,Ph,fr,591,0,0,1,0,2,1.0,590.0,1.0,0.5238332,0.0,0.08423671702620264
Contrast Stuff,2022_Oct_14_1328,100,1200,1920,49,2,1.5,True,54,male,Ph,fr,592,0,0,1,0,2,1.0,591.0,0.0,0.5567814,1.0,0.08763819207579797
Contrast Stuff,2022_Oct_14_1328,100,1200,1920,49,2,1.5,True,54,male,Ph,fr,593,0,0,1,0,2,1.0,592.0,1.0,0.7421318,0.0,0.08763819207579797
Contrast Stuff,2022_Oct_14_1328,100,1200,1920,49,2,1.5,True,54,male,Ph,fr,594,0,0,1,1,2,1.0,593.0,1.0,0.6723637,1.0,0.09117701854317731
Contrast Stuff,2022_Oct_14_1328,100,1200,1920,49,2,1.5,True,54,male,Ph,fr,595,0,0,1,1,2,1.0,594.0,1.0,0.4933988,1.0,0.09117701854317731
Contrast Stuff,2022_Oct_14_1328,100,1200,1920,49,2,1.5,True,54,male,Ph,fr,596,0,0,2,0,2,1.0,595.0,1.0,0.5682974,0.0,0.1618710017702884
Contrast Stuff,2022_Oct_14_1328,100,1200,1920,49,2,1.5,True,54,male,Ph,fr,597,0,0,2,0,2,1.0,596.0,0.0,1.5250458,1.0,0.16840734593483328
Contrast Stuff,2022_Oct_14_1328,100,1200,1920,49,2,1.5,True,54,male,Ph,fr,598,0,0,2,1,2,1.0,597.0,1.0,3.8273282,1.0,0.16840734593483328
Contrast Stuff,2022_Oct_14_1328,100,1200,1920,49,2,1.5,True,54,male,Ph,fr,599,0,0,2,0,2,1.0,598.0,0.0,1.5682184,1.0,0.16840734593483328
Contrast Stuff,2022_Oct_14_1328,100,1200,1920,49,2,1.5,True,54,male,Ph,fr,600,0,0,1,1,2,1.0,599.0,1.0,0.5655223,1.0,0.09117701854317731
Contrast Stuff,2022_Oct_14_1328,100,1200,1920,49,2,1.5,True,54,male,Ph,fr,601,0,0,1,0,2,1.0,600.0,0.0,0.5621692,1.0,0.08939009488744021
Contrast Stuff,2022_Oct_14_1328,100,1200,1920,49,2,1.5,True,54,male,Ph,fr,602,0,0,1,1,2,1.0,601.0,1.0,0.4797059,1.0,0.08939009488744021
Contrast Stuff,2022_Oct_14_1328,100,1200,1920,49,2,1.5,True,54,male,Ph,fr,603,0,0,1,0,2,1.0,602.0,0.0,0.5530957,1.0,0.08939009488744021
Contrast Stuff,2022_Oct_14_1328,100,1200,1920,49,2,1.5,True,54,male,Ph,fr,604,0,0,1,0,2,1.0,603.0,1.0,0.4818302,0.0,0.08763819207579797
Contrast Stuff,2022_Oct_14_1328,100,1200,1920,49,2,1.5,True,54,male,Ph,fr,605,0,0,1,1,2,1.0,604.0,1.0,0.5261383,1.0,0.09299966311581748
Contrast Stuff,2022_Oct_14_1328,100,1200,1920,49,2,1.5,True,54,male,Ph,fr,606,0,0,2,0,2,1.0,605.0,0.0,0.741501,1.0,0.12028991731550513
Contrast Stuff,2022_Oct_14_1328,100,1200,1920,49,2,1.5,True,54,male,Ph,fr,607,0,0,1,0,2,1.0,606.0,0.0,0.7710548,1.0,0.09299966311581748
Contrast Stuff,2022_Oct_14_1328,100,1200,1920,49,2,1.5,True,54,male,Ph,fr,608,0,0,2,1,2,1.0,607.0,1.0,0.5937695,1.0,0.12028991731550513
Contrast Stuff,2022_Oct_14_1328,100,1200,1920,49,2,1.5,True,54,male,Ph,fr,609,0,0,1,0,2,1.0,608.0,0.0,1.4793957,1.0,0.09117701854317731
Contrast Stuff,2022_Oct_14_1328,100,1200,1920,49,2,1.5,True,54,male,Ph,fr,610,0,0,2,1,2,1.0,609.0,1.0,5.3735123,1.0,0.11793242743228484
Contrast Stuff,2022_Oct_14_1328,100,1200,1920,49,2,1.5,True,54,male,Ph,fr,611,0,0,2,1,2,1.0,610.0,1.0,0.6025462,1.0,0.1156211405781588
Contrast Stuff,2022_Oct_14_1328,100,1200,1920,49,2,1.5,True,54,male,Ph,fr,612,0,0,1,1,2,1.0,611.0,1.0,0.572755,1.0,0.09117701854317731
Contrast Stuff,2022_Oct_14_1328,100,1200,1920,49,2,1.5,True,54,male,Ph,fr,613,0,0,2,1,2,1.0,612.0,1.0,0.4706112,1.0,0.11335515124769421
Contrast Stuff,2022_Oct_14_1328,100,1200,1920,49,2,1.5,True,54,male,Ph,fr,614,0,0,2,1,2,1.0,613.0,1.0,0.441969,1.0,0.11113357168191533
Contrast Stuff,2022_Oct_14_1328,100,1200,1920,49,2,1.5,True,54,male,Ph,fr,615,0,0,1,0,2,1.0,614.0,0.0,0.7064293,1.0,0.09117701854317731
Contrast Stuff,2022_Oct_14_1328,100,1200,1920,49,2,1.5,True,54,male,Ph,fr,616,0,0,2,1,2,1.0,615.0,1.0,0.4684648,1.0,0.10895553152050205
Contrast Stuff,2022_Oct_14_1328,100,1200,1920,49,2,1.5,True,54,male,Ph,fr,617,0,0,2,1,2,1.0,616.0,1.0,0.4802108,1.0,0.10472667292353503
Contrast Stuff,2022_Oct_14_1328,100,1200,1920,49,2,1.5,True,54,male,Ph,fr,618,0,0,1,0,2,1.0,617.0,0.0,0.6176733,1.0,0.08939009488744021
Contrast Stuff,2022_Oct_14_1328,100,1200,1920,49,2,1.5,True,54,male,Ph,fr,619,0,0,2,1,2,1.0,618.0,1.0,0.4829121,1.0,0.10267419772502775
Contrast Stuff,2022_Oct_14_1328,100,1200,1920,49,2,1.5,True,54,male,Ph,fr,620,0,0,2,1,2,1.0,619.0,1.0,0.4584624,1.0,0.10066194775589994
Contrast Stuff,2022_Oct_14_1328,100,1200,1920,49,2,1.5,True,54,male,Ph,fr,621,0,0,1,0,2,1.0,620.0,1.0,0.5397416,0.0,0.08939009488744021
Contrast Stuff,2022_Oct_14_1328,100,1200,1920,49,2,1.5,True,54,male,Ph,fr,622,0,0,2,0,2,1.0,621.0,1.0,0.5722622,0.0,0.09868913466602672
Contrast Stuff,2022_Oct_14_1328,100,1200,1920,49,2,1.5,True,54,male,Ph,fr,623,0,0,2,1,2,1.0,622.0,1.0,0.6157235,1.0,0.10267419772502775
Contrast Stuff,2022_Oct_14_1328,100,1200,1920,49,2,1.5,True,54,male,Ph,fr,624,0,0,2,1,2,1.0,623.0,1.0,0.5729584,1.0,0.10066194775589994
Contrast Stuff,2022_Oct_14_1328,100,1200,1920,49,2,1.5,True,54,male,Ph,fr,625,0,0,2,1,2,1.0,624.0,1.0,0.6325164,1.0,0.09868913466602672
Contrast Stuff,2022_Oct_14_1328,100,1200,1920,49,2,1.5,True,54,male,Ph,fr,626,0,0,2,0,2,1.0,625.0,1.0,0.6365916,0.0,0.09485874267274703
Contrast Stuff,2022_Oct_14_1328,100,1200,1920,49,2,1.5,True,54,male,Ph,fr,627,0,0,2,0,2,1.0,626.0,0.0,0.7106596,1.0,0.10066194775589994
Contrast Stuff,2022_Oct_14_1328,100,1200,1920,49,2,1.5,True,54,male,Ph,fr,628,0,0,1,0,2,1.0,627.0,0.0,1.3353086,1.0,0.09485874267274703
Contrast Stuff,2022_Oct_14_1328,100,1200,1920,49,2,1.5,True,54,male,Ph,fr,629,0,0,2,0,2,1.0,628.0,0.0,0.7214034,1.0,0.09868913466602672
Contrast Stuff,2022_Oct_14_1328,100,1200,1920,49,2,1.5,True,54,male,Ph,fr,630,0,0,1,1,2,1.0,629.0,1.0,0.7776543,1.0,0.09485874267274703
Contrast Stuff,2022_Oct_14_1328,100,1200,1920,49,2,1.5,True,54,male,Ph,fr,631,0,0,2,0,2,1.0,630.0,0.0,0.838181,1.0,0.09485874267274703
Contrast Stuff,2022_Oct_14_1328,100,1200,1920,49,2,1.5,True,54,male,Ph,fr,632,0,0,2,1,2,1.0,631.0,1.0,0.562491,1.0,0.09299966311581748
Contrast Stuff,2022_Oct_14_1328,100,1200,1920,49,2,1.5,True,54,male,Ph,fr,633,0,0,1,0,2,1.0,632.0,0.0,0.7823812,1.0,0.09299966311581748
Contrast Stuff,2022_Oct_14_1328,100,1200,1920,49,2,1.5,True,54,male,Ph,fr,634,0,0,1,0,2,1.0,633.0,0.0,1.5357091,1.0,0.09299966311581748
Contrast Stuff,2022_Oct_14_1328,100,1200,1920,49,2,1.5,True,54,male,Ph,fr,635,0,0,1,0,2,1.0,634.0,0.0,0.8493888,1.0,0.09117701854317731
Contrast Stuff,2022_Oct_14_1328,100,1200,1920,49,2,1.5,True,54,male,Ph,fr,636,0,0,2,0,2,1.0,635.0,0.0,0.5614162,1.0,0.09117701854317731
Contrast Stuff,2022_Oct_14_1328,100,1200,1920,49,2,1.5,True,54,male,Ph,fr,637,0,0,1,1,2,1.0,636.0,1.0,0.6140056,1.0,0.09117701854317731
Contrast Stuff,2022_Oct_14_1328,100,1200,1920,49,2,1.5,True,54,male,Ph,fr,638,0,0,1,0,2,1.0,637.0,0.0,0.5851267,1.0,0.09117701854317731
Contrast Stuff,2022_Oct_14_1328,100,1200,1920,49,2,1.5,True,54,male,Ph,fr,639,0,0,2,1,2,1.0,638.0,1.0,0.5792677,1.0,0.08763819207579797
Contrast Stuff,2022_Oct_14_1328,100,1200,1920,49,2,1.5,True,54,male,Ph,fr,640,0,0,1,1,2,1.0,639.0,1.0,0.556987,1.0,0.08939009488744021
Contrast Stuff,2022_Oct_14_1328,100,1200,1920,49,2,1.5,True,54,male,Ph,fr,641,90,0,1,1,1,1.0,640.0,0.0,1.7424821,0.0,0.5203941169508742
Contrast Stuff,2022_Oct_14_1328,100,1200,1920,49,2,1.5,True,54,male,Ph,fr,642,90,0,1,0,1,1.0,641.0,0.0,0.6655379,1.0,0.5414076092527405
Contrast Stuff,2022_Oct_14_1328,100,1200,1920,49,2,1.5,True,54,male,Ph,fr,643,90,0,1,1,1,1.0,642.0,1.0,0.4069526,1.0,0.5414076092527405
Contrast Stuff,2022_Oct_14_1328,100,1200,1920,49,2,1.5,True,54,male,Ph,fr,644,90,0,1,1,1,1.0,643.0,1.0,0.5823739,1.0,0.5307968865089208
Contrast Stuff,2022_Oct_14_1328,100,1200,1920,49,2,1.5,True,54,male,Ph,fr,645,90,0,1,0,1,1.0,644.0,0.0,0.4815147,1.0,0.5307968865089208
Contrast Stuff,2022_Oct_14_1328,100,1200,1920,49,2,1.5,True,54,male,Ph,fr,646,90,0,1,0,1,1.0,645.0,0.0,0.6089824,1.0,0.5307968865089208
Contrast Stuff,2022_Oct_14_1328,100,1200,1920,49,2,1.5,True,54,male,Ph,fr,647,90,0,2,1,1,1.0,646.0,1.0,0.5252241,1.0,0.5001962150677132
Contrast Stuff,2022_Oct_14_1328,100,1200,1920,49,2,1.5,True,54,male,Ph,fr,648,90,0,2,1,1,1.0,647.0,1.0,0.55323,1.0,0.5001962150677132
Contrast Stuff,2022_Oct_14_1328,100,1200,1920,49,2,1.5,True,54,male,Ph,fr,649,90,0,1,0,1,1.0,648.0,0.0,0.574506,1.0,0.41857810191008316
Contrast Stuff,2022_Oct_14_1328,100,1200,1920,49,2,1.5,True,54,male,Ph,fr,650,90,0,1,1,1,1.0,649.0,1.0,0.6454156,1.0,0.41857810191008316
Contrast Stuff,2022_Oct_14_1328,100,1200,1920,49,2,1.5,True,54,male,Ph,fr,651,90,0,1,0,1,1.0,650.0,1.0,0.8522587,0.0,0.41037464094999004
Contrast Stuff,2022_Oct_14_1328,100,1200,1920,49,2,1.5,True,54,male,Ph,fr,652,90,0,2,0,1,1.0,651.0,0.0,0.5262169,1.0,0.5001962150677132
Contrast Stuff,2022_Oct_14_1328,100,1200,1920,49,2,1.5,True,54,male,Ph,fr,653,90,0,2,1,1,1.0,652.0,1.0,0.583505,1.0,0.3944468922240608
Contrast Stuff,2022_Oct_14_1328,100,1200,1920,49,2,1.5,True,54,male,Ph,fr,654,90,0,1,0,1,1.0,653.0,0.0,0.6571608,1.0,0.5203941169508742
Contrast Stuff,2022_Oct_14_1328,100,1200,1920,49,2,1.5,True,54,male,Ph,fr,655,90,0,2,1,1,1.0,654.0,0.0,0.9162134,0.0,0.38671636435739903
Contrast Stuff,2022_Oct_14_1328,100,1200,1920,49,2,1.5,True,54,male,Ph,fr,656,90,0,1,1,1,1.0,655.0,1.0,0.4619883,1.0,0.5203941169508742
Contrast Stuff,2022_Oct_14_1328,100,1200,1920,49,2,1.5,True,54,male,Ph,fr,657,90,0,2,1,1,1.0,656.0,1.0,0.4405494,1.0,0.49039316970062474
Contrast Stuff,2022_Oct_14_1328,100,1200,1920,49,2,1.5,True,54,male,Ph,fr,658,90,0,2,1,1,1.0,657.0,1.0,0.3974353,1.0,0.49039316970062474
Contrast Stuff,2022_Oct_14_1328,100,1200,1920,49,2,1.5,True,54,male,Ph,fr,659,90,0,2,1,1,1.0,658.0,1.0,0.5060512,1.0,0.49039316970062474
Contrast Stuff,2022_Oct_14_1328,100,1200,1920,49,2,1.5,True,54,male,Ph,fr,660,90,0,2,0,1,1.0,659.0,0.0,0.7475044,1.0,0.40233195469697436
Contrast Stuff,2022_Oct_14_1328,100,1200,1920,49,2,1.5,True,54,male,Ph,fr,661,90,0,2,0,1,1.0,660.0,0.0,0.6973571,1.0,0.3944468922240608
Contrast Stuff,2022_Oct_14_1328,100,1200,1920,49,2,1.5,True,54,male,Ph,fr,662,90,0,2,0,1,1.0,661.0,0.0,0.6604327,1.0,0.3944468922240608
Contrast Stuff,2022_Oct_14_1328,100,1200,1920,49,2,1.5,True,54,male,Ph,fr,663,90,0,2,0,1,1.0,662.0,0.0,0.6535157,1.0,0.38671636435739903
Contrast Stuff,2022_Oct_14_1328,100,1200,1920,49,2,1.5,True,54,male,Ph,fr,664,90,0,2,0,1,1.0,663.0,0.0,0.7192534,1.0,0.38671636435739903
Contrast Stuff,2022_Oct_14_1328,100,1200,1920,49,2,1.5,True,54,male,Ph,fr,665,90,0,2,1,1,1.0,664.0,0.0,0.7008238,0.0,0.3791373424660041
Contrast Stuff,2022_Oct_14_1328,100,1200,1920,49,2,1.5,True,54,male,Ph,fr,666,90,0,1,1,1,1.0,665.0,1.0,4.7163115,1.0,0.42694555149181274
Contrast Stuff,2022_Oct_14_1328,100,1200,1920,49,2,1.5,True,54,male,Ph,fr,667,90,0,2,0,1,1.0,666.0,0.0,1.57332,1.0,0.38671636435739903
Contrast Stuff,2022_Oct_14_1328,100,1200,1920,49,2,1.5,True,54,male,Ph,fr,668,90,0,1,1,1,1.0,667.0,0.0,0.6381855,0.0,0.41857810191008316
Contrast Stuff,2022_Oct_14_1328,100,1200,1920,49,2,1.5,True,54,male,Ph,fr,669,90,0,1,1,1,1.0,668.0,1.0,0.3994174,1.0,0.5203941169508742
Contrast Stuff,2022_Oct_14_1328,100,1200,1920,49,2,1.5,True,54,male,Ph,fr,670,90,0,1,1,1,1.0,669.0,1.0,0.5565737,1.0,0.43548026785645116
Contrast Stuff,2022_Oct_14_1328,100,1200,1920,49,2,1.5,True,54,male,Ph,fr,671,90,0,1,0,1,1.0,670.0,0.0,0.8249838,1.0,0.42694555149181274
Contrast Stuff,2022_Oct_14_1328,100,1200,1920,49,2,1.5,True,54,male,Ph,fr,672,90,0,1,1,1,1.0,671.0,1.0,0.8093984,1.0,0.41857810191008316
Contrast Stuff,2022_Oct_14_1328,100,1200,1920,49,2,1.5,True,54,male,Ph,fr,673,90,0,2,1,1,1.0,672.0,1.0,0.568078,1.0,0.38671636435739903
Contrast Stuff,2022_Oct_14_1328,100,1200,1920,49,2,1.5,True,54,male,Ph,fr,674,90,0,2,0,1,1.0,673.0,0.0,0.8863552,1.0,0.3791373424660041
Contrast Stuff,2022_Oct_14_1328,100,1200,1920,49,2,1.5,True,54,male,Ph,fr,675,90,0,2,1,1,1.0,674.0,0.0,1.5162351,0.0,0.3717068572752103
Contrast Stuff,2022_Oct_14_1328,100,1200,1920,49,2,1.5,True,54,male,Ph,fr,676,90,0,1,0,1,1.0,675.0,1.0,1.2412496,0.0,0.41037464094999004
Contrast Stuff,2022_Oct_14_1328,100,1200,1920,49,2,1.5,True,54,male,Ph,fr,677,90,0,2,0,1,1.0,676.0,0.0,1.7778543,1.0,0.38671636435739903
Contrast Stuff,2022_Oct_14_1328,100,1200,1920,49,2,1.5,True,54,male,Ph,fr,678,90,0,1,1,1,1.0,677.0,1.0,0.7032985,1.0,0.5101952250289417
Contrast Stuff,2022_Oct_14_1328,100,1200,1920,49,2,1.5,True,54,male,Ph,fr,679,90,0,1,0,1,1.0,678.0,0.0,0.5996941,1.0,0.5101952250289417
Contrast Stuff,2022_Oct_14_1328,100,1200,1920,49,2,1.5,True,54,male,Ph,fr,680,90,0,2,1,1,1.0,679.0,1.0,0.7223126,1.0,0.3791373424660041
Contrast Stuff,2022_Oct_14_1328,100,1200,1920,49,2,1.5,True,54,male,Ph,fr,681,90,0,2,0,1,1.0,680.0,0.0,0.7228352,1.0,0.3717068572752103
Contrast Stuff,2022_Oct_14_1328,100,1200,1920,49,2,1.5,True,54,male,Ph,fr,682,90,0,2,0,1,1.0,681.0,0.0,2.2236025,1.0,0.3717068572752103
Contrast Stuff,2022_Oct_14_1328,100,1200,1920,49,2,1.5,True,54,male,Ph,fr,683,90,0,1,0,1,1.0,682.0,0.0,0.7537124,1.0,0.43548026785645116
Contrast Stuff,2022_Oct_14_1328,100,1200,1920,49,2,1.5,True,54,male,Ph,fr,684,90,0,1,1,1,1.0,683.0,1.0,1.2288159,1.0,0.5101952250289417
Contrast Stuff,2022_Oct_14_1328,100,1200,1920,49,2,1.5,True,54,male,Ph,fr,685,90,0,1,0,1,1.0,684.0,0.0,0.6933191,1.0,0.42694555149181274
Contrast Stuff,2022_Oct_14_1328,100,1200,1920,49,2,1.5,True,54,male,Ph,fr,686,90,0,2,1,1,1.0,685.0,0.0,0.7976761,0.0,0.3644219977033851
Contrast Stuff,2022_Oct_14_1328,100,1200,1920,49,2,1.5,True,54,male,Ph,fr,687,90,0,1,1,1,1.0,686.0,1.0,1.0524586,1.0,0.41857810191008316
Contrast Stuff,2022_Oct_14_1328,100,1200,1920,49,2,1.5,True,54,male,Ph,fr,688,90,0,2,0,1,1.0,687.0,0.0,1.1338756,1.0,0.3717068572752103
Contrast Stuff,2022_Oct_14_1328,100,1200,1920,49,2,1.5,True,54,male,Ph,fr,689,90,0,2,0,1,1.0,688.0,0.0,0.7516082,1.0,0.3717068572752103
Contrast Stuff,2022_Oct_14_1328,100,1200,1920,49,2,1.5,True,54,male,Ph,fr,690,90,0,2,0,1,1.0,689.0,0.0,0.7555912,1.0,0.3644219977033851
Contrast Stuff,2022_Oct_14_1328,100,1200,1920,49,2,1.5,True,54,male,Ph,fr,691,90,0,1,1,1,1.0,690.0,1.0,0.6778419,1.0,0.41037464094999004
Contrast Stuff,2022_Oct_14_1328,100,1200,1920,49,2,1.5,True,54,male,Ph,fr,692,90,0,2,1,1,1.0,691.0,0.0,0.7619348,0.0,0.3572799097214362
Contrast Stuff,2022_Oct_14_1328,100,1200,1920,49,2,1.5,True,54,male,Ph,fr,693,90,0,2,0,1,1.0,692.0,0.0,0.8812078,1.0,0.3717068572752103
Contrast Stuff,2022_Oct_14_1328,100,1200,1920,49,2,1.5,True,54,male,Ph,fr,694,90,0,2,1,1,1.0,693.0,0.0,0.6156035,0.0,0.3644219977033851
Contrast Stuff,2022_Oct_14_1328,100,1200,1920,49,2,1.5,True,54,male,Ph,fr,695,90,0,1,0,1,1.0,694.0,0.0,0.760097,1.0,0.40233195469697436
Contrast Stuff,2022_Oct_14_1328,100,1200,1920,49,2,1.5,True,54,male,Ph,fr,696,90,0,2,0,1,1.0,695.0,0.0,0.5830969,1.0,0.49039316970062474
Contrast Stuff,2022_Oct_14_1328,100,1200,1920,49,2,1.5,True,54,male,Ph,fr,697,90,0,2,1,1,1.0,696.0,0.0,0.6616159,0.0,0.3791373424660041
Contrast Stuff,2022_Oct_14_1328,100,1200,1920,49,2,1.5,True,54,male,Ph,fr,698,90,0,1,0,1,1.0,697.0,1.0,2.8996856,0.0,0.3944468922240608
Contrast Stuff,2022_Oct_14_1328,100,1200,1920,49,2,1.5,True,54,male,Ph,fr,699,90,0,1,1,1,1.0,698.0,1.0,0.8263649,1.0,0.5001962150677132
Contrast Stuff,2022_Oct_14_1328,100,1200,1920,49,2,1.5,True,54,male,Ph,fr,700,90,0,1,0,1,1.0,699.0,0.0,0.6902003,1.0,0.5001962150677132
Contrast Stuff,2022_Oct_14_1328,100,1200,1920,49,2,1.5,True,54,male,Ph,fr,701,90,0,1,1,1,1.0,700.0,1.0,0.5484661,1.0,0.49039316970062474
Contrast Stuff,2022_Oct_14_1328,100,1200,1920,49,2,1.5,True,54,male,Ph,fr,702,90,0,1,1,1,1.0,701.0,1.0,0.6930341,1.0,0.41037464094999004
Contrast Stuff,2022_Oct_14_1328,100,1200,1920,49,2,1.5,True,54,male,Ph,fr,703,90,0,2,1,1,1.0,702.0,1.0,0.4442493,1.0,0.49039316970062474
Contrast Stuff,2022_Oct_14_1328,100,1200,1920,49,2,1.5,True,54,male,Ph,fr,704,90,0,2,1,1,1.0,703.0,1.0,0.4368757,1.0,0.49039316970062474
Contrast Stuff,2022_Oct_14_1328,100,1200,1920,49,2,1.5,True,54,male,Ph,fr,705,90,0,1,1,1,1.0,704.0,1.0,0.4496693,1.0,0.40233195469697436
Contrast Stuff,2022_Oct_14_1328,100,1200,1920,49,2,1.5,True,54,male,Ph,fr,706,90,0,2,0,1,1.0,705.0,1.0,0.6275453,0.0,0.38671636435739903
Contrast Stuff,2022_Oct_14_1328,100,1200,1920,49,2,1.5,True,54,male,Ph,fr,707,90,0,1,1,1,1.0,706.0,1.0,0.4649669,1.0,0.3944468922240608
Contrast Stuff,2022_Oct_14_1328,100,1200,1920,49,2,1.5,True,54,male,Ph,fr,708,90,0,2,1,1,1.0,707.0,1.0,0.4544043,1.0,0.4807822483352262
Contrast Stuff,2022_Oct_14_1328,100,1200,1920,49,2,1.5,True,54,male,Ph,fr,709,90,0,1,0,1,1.0,708.0,1.0,1.0134561,0.0,0.38671636435739903
Contrast Stuff,2022_Oct_14_1328,100,1200,1920,49,2,1.5,True,54,male,Ph,fr,710,90,0,2,1,1,1.0,709.0,1.0,0.4950694,1.0,0.4807822483352262
Contrast Stuff,2022_Oct_14_1328,100,1200,1920,49,2,1.5,True,54,male,Ph,fr,711,90,0,2,0,1,1.0,710.0,0.0,1.5427417,1.0,0.4807822483352262
Contrast Stuff,2022_Oct_14_1328,100,1200,1920,49,2,1.5,True,54,male,Ph,fr,712,90,0,2,0,1,1.0,711.0,0.0,1.5087873,1.0,0.40233195469697436
Contrast Stuff,2022_Oct_14_1328,100,1200,1920,49,2,1.5,True,54,male,Ph,fr,713,90,0,2,0,1,1.0,712.0,0.0,0.7628253,1.0,0.3944468922240608
Contrast Stuff,2022_Oct_14_1328,100,1200,1920,49,2,1.5,True,54,male,Ph,fr,714,90,0,1,0,1,1.0,713.0,0.0,0.6137735,1.0,0.49039316970062474
Contrast Stuff,2022_Oct_14_1328,100,1200,1920,49,2,1.5,True,54,male,Ph,fr,715,90,0,1,0,1,1.0,714.0,0.0,0.536262,1.0,0.49039316970062474
Contrast Stuff,2022_Oct_14_1328,100,1200,1920,49,2,1.5,True,54,male,Ph,fr,716,90,0,1,1,1,1.0,715.0,0.0,0.7335746,0.0,0.4807822483352262
Contrast Stuff,2022_Oct_14_1328,100,1200,1920,49,2,1.5,True,54,male,Ph,fr,717,90,0,1,0,1,1.0,716.0,0.0,0.6814654,1.0,0.40233195469697436
Contrast Stuff,2022_Oct_14_1328,100,1200,1920,49,2,1.5,True,54,male,Ph,fr,718,90,0,2,1,1,1.0,717.0,1.0,1.1451955,1.0,0.3944468922240608
Contrast Stuff,2022_Oct_14_1328,100,1200,1920,49,2,1.5,True,54,male,Ph,fr,719,90,0,1,0,1,1.0,718.0,1.0,0.7466888,0.0,0.3944468922240608
Contrast Stuff,2022_Oct_14_1328,100,1200,1920,49,2,1.5,True,54,male,Ph,fr,720,90,0,1,0,1,1.0,719.0,0.0,0.7169826,1.0,0.5101952250289417
