exp_name,date,refreshrate(hz),screenresolutionvert(pixels),screenresolutionhori(pixels),screenwidth(cm),eccentricity,Stim_size,left-handed,age,gender,participant,language,TrialNumber,bgori,temp,staircase,targetloc,cond,ran,order,resp,rt,acc,contrast
Contrast Stuff,2022_Oct_14_1109,100,1200,1920,49,2,2.5,False,,male,test,fr,1,0,0,2,1,2,1.0,0.0,1.0,0.2399768,1.0,0.011410550312757525
Contrast Stuff,2022_Oct_14_1109,100,1200,1920,49,2,2.5,False,,male,test,fr,2,0,0,1,0,2,1.0,1.0,0.0,0.2369213,1.0,0.011410550312757525
Contrast Stuff,2022_Oct_14_1109,100,1200,1920,49,2,2.5,False,,male,test,fr,3,0,0,1,1,2,1.0,2.0,1.0,0.248157,1.0,0.006956757690467928
Contrast Stuff,2022_Oct_14_1109,100,1200,1920,49,2,2.5,False,,male,test,fr,4,0,0,1,1,2,1.0,3.0,0.0,0.3942645,0.0,0.004682600487639664
Contrast Stuff,2022_Oct_14_1109,100,1200,1920,49,2,2.5,False,,male,test,fr,5,0,0,1,0,2,1.0,4.0,--,--,--,--
Contrast Stuff,2022_Oct_14_1109,100,1200,1920,49,2,2.5,False,,male,test,fr,6,0,0,1,1,2,0.0,--,--,--,--,--
Contrast Stuff,2022_Oct_14_1109,100,1200,1920,49,2,2.5,False,,male,test,fr,7,0,0,1,1,2,0.0,--,--,--,--,--
Contrast Stuff,2022_Oct_14_1109,100,1200,1920,49,2,2.5,False,,male,test,fr,8,0,0,2,0,2,0.0,--,--,--,--,--
Contrast Stuff,2022_Oct_14_1109,100,1200,1920,49,2,2.5,False,,male,test,fr,9,0,0,2,0,2,0.0,--,--,--,--,--
Contrast Stuff,2022_Oct_14_1109,100,1200,1920,49,2,2.5,False,,male,test,fr,10,0,0,1,0,2,0.0,--,--,--,--,--
Contrast Stuff,2022_Oct_14_1109,100,1200,1920,49,2,2.5,False,,male,test,fr,11,0,0,2,1,2,0.0,--,--,--,--,--
Contrast Stuff,2022_Oct_14_1109,100,1200,1920,49,2,2.5,False,,male,test,fr,12,0,0,1,0,2,0.0,--,--,--,--,--
Contrast Stuff,2022_Oct_14_1109,100,1200,1920,49,2,2.5,False,,male,test,fr,13,0,0,1,0,2,0.0,--,--,--,--,--
Contrast Stuff,2022_Oct_14_1109,100,1200,1920,49,2,2.5,False,,male,test,fr,14,0,0,2,1,2,0.0,--,--,--,--,--
Contrast Stuff,2022_Oct_14_1109,100,1200,1920,49,2,2.5,False,,male,test,fr,15,0,0,1,1,2,0.0,--,--,--,--,--
Contrast Stuff,2022_Oct_14_1109,100,1200,1920,49,2,2.5,False,,male,test,fr,16,0,0,2,1,2,0.0,--,--,--,--,--
Contrast Stuff,2022_Oct_14_1109,100,1200,1920,49,2,2.5,False,,male,test,fr,17,0,0,2,1,2,0.0,--,--,--,--,--
Contrast Stuff,2022_Oct_14_1109,100,1200,1920,49,2,2.5,False,,male,test,fr,18,0,0,2,0,2,0.0,--,--,--,--,--
Contrast Stuff,2022_Oct_14_1109,100,1200,1920,49,2,2.5,False,,male,test,fr,19,0,0,2,0,2,0.0,--,--,--,--,--
Contrast Stuff,2022_Oct_14_1109,100,1200,1920,49,2,2.5,False,,male,test,fr,20,0,0,2,1,2,0.0,--,--,--,--,--
Contrast Stuff,2022_Oct_14_1109,100,1200,1920,49,2,2.5,False,,male,test,fr,21,0,0,2,0,2,0.0,--,--,--,--,--
Contrast Stuff,2022_Oct_14_1109,100,1200,1920,49,2,2.5,False,,male,test,fr,22,0,0,1,1,2,0.0,--,--,--,--,--
Contrast Stuff,2022_Oct_14_1109,100,1200,1920,49,2,2.5,False,,male,test,fr,23,0,0,2,0,2,0.0,--,--,--,--,--
Contrast Stuff,2022_Oct_14_1109,100,1200,1920,49,2,2.5,False,,male,test,fr,24,0,0,1,1,2,0.0,--,--,--,--,--
Contrast Stuff,2022_Oct_14_1109,100,1200,1920,49,2,2.5,False,,male,test,fr,25,0,0,1,1,2,0.0,--,--,--,--,--
Contrast Stuff,2022_Oct_14_1109,100,1200,1920,49,2,2.5,False,,male,test,fr,26,0,0,2,1,2,0.0,--,--,--,--,--
Contrast Stuff,2022_Oct_14_1109,100,1200,1920,49,2,2.5,False,,male,test,fr,27,0,0,1,1,2,0.0,--,--,--,--,--
Contrast Stuff,2022_Oct_14_1109,100,1200,1920,49,2,2.5,False,,male,test,fr,28,0,0,2,1,2,0.0,--,--,--,--,--
Contrast Stuff,2022_Oct_14_1109,100,1200,1920,49,2,2.5,False,,male,test,fr,29,0,0,1,1,2,0.0,--,--,--,--,--
Contrast Stuff,2022_Oct_14_1109,100,1200,1920,49,2,2.5,False,,male,test,fr,30,0,0,2,0,2,0.0,--,--,--,--,--
Contrast Stuff,2022_Oct_14_1109,100,1200,1920,49,2,2.5,False,,male,test,fr,31,0,0,1,0,2,0.0,--,--,--,--,--
Contrast Stuff,2022_Oct_14_1109,100,1200,1920,49,2,2.5,False,,male,test,fr,32,0,0,1,1,2,0.0,--,--,--,--,--
Contrast Stuff,2022_Oct_14_1109,100,1200,1920,49,2,2.5,False,,male,test,fr,33,0,0,2,0,2,0.0,--,--,--,--,--
Contrast Stuff,2022_Oct_14_1109,100,1200,1920,49,2,2.5,False,,male,test,fr,34,0,0,1,1,2,0.0,--,--,--,--,--
Contrast Stuff,2022_Oct_14_1109,100,1200,1920,49,2,2.5,False,,male,test,fr,35,0,0,2,0,2,0.0,--,--,--,--,--
Contrast Stuff,2022_Oct_14_1109,100,1200,1920,49,2,2.5,False,,male,test,fr,36,0,0,1,0,2,0.0,--,--,--,--,--
Contrast Stuff,2022_Oct_14_1109,100,1200,1920,49,2,2.5,False,,male,test,fr,37,0,0,2,0,2,0.0,--,--,--,--,--
Contrast Stuff,2022_Oct_14_1109,100,1200,1920,49,2,2.5,False,,male,test,fr,38,0,0,2,0,2,0.0,--,--,--,--,--
Contrast Stuff,2022_Oct_14_1109,100,1200,1920,49,2,2.5,False,,male,test,fr,39,0,0,2,1,2,0.0,--,--,--,--,--
Contrast Stuff,2022_Oct_14_1109,100,1200,1920,49,2,2.5,False,,male,test,fr,40,0,0,2,1,2,0.0,--,--,--,--,--
Contrast Stuff,2022_Oct_14_1109,100,1200,1920,49,2,2.5,False,,male,test,fr,41,0,0,2,1,2,0.0,--,--,--,--,--
Contrast Stuff,2022_Oct_14_1109,100,1200,1920,49,2,2.5,False,,male,test,fr,42,0,0,1,1,2,0.0,--,--,--,--,--
Contrast Stuff,2022_Oct_14_1109,100,1200,1920,49,2,2.5,False,,male,test,fr,43,0,0,2,1,2,0.0,--,--,--,--,--
Contrast Stuff,2022_Oct_14_1109,100,1200,1920,49,2,2.5,False,,male,test,fr,44,0,0,1,0,2,0.0,--,--,--,--,--
Contrast Stuff,2022_Oct_14_1109,100,1200,1920,49,2,2.5,False,,male,test,fr,45,0,0,1,1,2,0.0,--,--,--,--,--
Contrast Stuff,2022_Oct_14_1109,100,1200,1920,49,2,2.5,False,,male,test,fr,46,0,0,1,0,2,0.0,--,--,--,--,--
Contrast Stuff,2022_Oct_14_1109,100,1200,1920,49,2,2.5,False,,male,test,fr,47,0,0,2,0,2,0.0,--,--,--,--,--
Contrast Stuff,2022_Oct_14_1109,100,1200,1920,49,2,2.5,False,,male,test,fr,48,0,0,1,0,2,0.0,--,--,--,--,--
Contrast Stuff,2022_Oct_14_1109,100,1200,1920,49,2,2.5,False,,male,test,fr,49,0,0,1,0,2,0.0,--,--,--,--,--
Contrast Stuff,2022_Oct_14_1109,100,1200,1920,49,2,2.5,False,,male,test,fr,50,0,0,1,0,2,0.0,--,--,--,--,--
Contrast Stuff,2022_Oct_14_1109,100,1200,1920,49,2,2.5,False,,male,test,fr,51,0,0,1,1,2,0.0,--,--,--,--,--
Contrast Stuff,2022_Oct_14_1109,100,1200,1920,49,2,2.5,False,,male,test,fr,52,0,0,1,0,2,0.0,--,--,--,--,--
Contrast Stuff,2022_Oct_14_1109,100,1200,1920,49,2,2.5,False,,male,test,fr,53,0,0,2,1,2,0.0,--,--,--,--,--
Contrast Stuff,2022_Oct_14_1109,100,1200,1920,49,2,2.5,False,,male,test,fr,54,0,0,1,1,2,0.0,--,--,--,--,--
Contrast Stuff,2022_Oct_14_1109,100,1200,1920,49,2,2.5,False,,male,test,fr,55,0,0,2,1,2,0.0,--,--,--,--,--
Contrast Stuff,2022_Oct_14_1109,100,1200,1920,49,2,2.5,False,,male,test,fr,56,0,0,1,0,2,0.0,--,--,--,--,--
Contrast Stuff,2022_Oct_14_1109,100,1200,1920,49,2,2.5,False,,male,test,fr,57,0,0,1,0,2,0.0,--,--,--,--,--
Contrast Stuff,2022_Oct_14_1109,100,1200,1920,49,2,2.5,False,,male,test,fr,58,0,0,1,1,2,0.0,--,--,--,--,--
Contrast Stuff,2022_Oct_14_1109,100,1200,1920,49,2,2.5,False,,male,test,fr,59,0,0,1,1,2,0.0,--,--,--,--,--
Contrast Stuff,2022_Oct_14_1109,100,1200,1920,49,2,2.5,False,,male,test,fr,60,0,0,1,0,2,0.0,--,--,--,--,--
Contrast Stuff,2022_Oct_14_1109,100,1200,1920,49,2,2.5,False,,male,test,fr,61,0,0,2,1,2,0.0,--,--,--,--,--
Contrast Stuff,2022_Oct_14_1109,100,1200,1920,49,2,2.5,False,,male,test,fr,62,0,0,2,1,2,0.0,--,--,--,--,--
Contrast Stuff,2022_Oct_14_1109,100,1200,1920,49,2,2.5,False,,male,test,fr,63,0,0,2,0,2,0.0,--,--,--,--,--
Contrast Stuff,2022_Oct_14_1109,100,1200,1920,49,2,2.5,False,,male,test,fr,64,0,0,2,0,2,0.0,--,--,--,--,--
Contrast Stuff,2022_Oct_14_1109,100,1200,1920,49,2,2.5,False,,male,test,fr,65,0,0,2,0,2,0.0,--,--,--,--,--
Contrast Stuff,2022_Oct_14_1109,100,1200,1920,49,2,2.5,False,,male,test,fr,66,0,0,2,0,2,0.0,--,--,--,--,--
Contrast Stuff,2022_Oct_14_1109,100,1200,1920,49,2,2.5,False,,male,test,fr,67,0,0,2,0,2,0.0,--,--,--,--,--
Contrast Stuff,2022_Oct_14_1109,100,1200,1920,49,2,2.5,False,,male,test,fr,68,0,0,2,0,2,0.0,--,--,--,--,--
Contrast Stuff,2022_Oct_14_1109,100,1200,1920,49,2,2.5,False,,male,test,fr,69,0,0,1,0,2,0.0,--,--,--,--,--
Contrast Stuff,2022_Oct_14_1109,100,1200,1920,49,2,2.5,False,,male,test,fr,70,0,0,2,1,2,0.0,--,--,--,--,--
Contrast Stuff,2022_Oct_14_1109,100,1200,1920,49,2,2.5,False,,male,test,fr,71,0,0,1,0,2,0.0,--,--,--,--,--
Contrast Stuff,2022_Oct_14_1109,100,1200,1920,49,2,2.5,False,,male,test,fr,72,0,0,2,1,2,0.0,--,--,--,--,--
Contrast Stuff,2022_Oct_14_1109,100,1200,1920,49,2,2.5,False,,male,test,fr,73,0,0,1,1,2,0.0,--,--,--,--,--
Contrast Stuff,2022_Oct_14_1109,100,1200,1920,49,2,2.5,False,,male,test,fr,74,0,0,1,0,2,0.0,--,--,--,--,--
Contrast Stuff,2022_Oct_14_1109,100,1200,1920,49,2,2.5,False,,male,test,fr,75,0,0,1,1,2,0.0,--,--,--,--,--
Contrast Stuff,2022_Oct_14_1109,100,1200,1920,49,2,2.5,False,,male,test,fr,76,0,0,2,1,2,0.0,--,--,--,--,--
Contrast Stuff,2022_Oct_14_1109,100,1200,1920,49,2,2.5,False,,male,test,fr,77,0,0,2,0,2,0.0,--,--,--,--,--
Contrast Stuff,2022_Oct_14_1109,100,1200,1920,49,2,2.5,False,,male,test,fr,78,0,0,2,1,2,0.0,--,--,--,--,--
Contrast Stuff,2022_Oct_14_1109,100,1200,1920,49,2,2.5,False,,male,test,fr,79,0,0,2,0,2,0.0,--,--,--,--,--
Contrast Stuff,2022_Oct_14_1109,100,1200,1920,49,2,2.5,False,,male,test,fr,80,0,0,1,0,2,0.0,--,--,--,--,--
Contrast Stuff,2022_Oct_14_1109,100,1200,1920,49,2,2.5,False,,male,test,fr,81,90,0,1,0,1,0.0,--,--,--,--,--
Contrast Stuff,2022_Oct_14_1109,100,1200,1920,49,2,2.5,False,,male,test,fr,82,90,0,2,0,1,0.0,--,--,--,--,--
Contrast Stuff,2022_Oct_14_1109,100,1200,1920,49,2,2.5,False,,male,test,fr,83,90,0,1,0,1,0.0,--,--,--,--,--
Contrast Stuff,2022_Oct_14_1109,100,1200,1920,49,2,2.5,False,,male,test,fr,84,90,0,2,0,1,0.0,--,--,--,--,--
Contrast Stuff,2022_Oct_14_1109,100,1200,1920,49,2,2.5,False,,male,test,fr,85,90,0,2,1,1,0.0,--,--,--,--,--
Contrast Stuff,2022_Oct_14_1109,100,1200,1920,49,2,2.5,False,,male,test,fr,86,90,0,2,0,1,0.0,--,--,--,--,--
Contrast Stuff,2022_Oct_14_1109,100,1200,1920,49,2,2.5,False,,male,test,fr,87,90,0,2,1,1,0.0,--,--,--,--,--
Contrast Stuff,2022_Oct_14_1109,100,1200,1920,49,2,2.5,False,,male,test,fr,88,90,0,2,1,1,0.0,--,--,--,--,--
Contrast Stuff,2022_Oct_14_1109,100,1200,1920,49,2,2.5,False,,male,test,fr,89,90,0,2,1,1,0.0,--,--,--,--,--
Contrast Stuff,2022_Oct_14_1109,100,1200,1920,49,2,2.5,False,,male,test,fr,90,90,0,2,0,1,0.0,--,--,--,--,--
Contrast Stuff,2022_Oct_14_1109,100,1200,1920,49,2,2.5,False,,male,test,fr,91,90,0,1,1,1,0.0,--,--,--,--,--
Contrast Stuff,2022_Oct_14_1109,100,1200,1920,49,2,2.5,False,,male,test,fr,92,90,0,2,0,1,0.0,--,--,--,--,--
Contrast Stuff,2022_Oct_14_1109,100,1200,1920,49,2,2.5,False,,male,test,fr,93,90,0,1,1,1,0.0,--,--,--,--,--
Contrast Stuff,2022_Oct_14_1109,100,1200,1920,49,2,2.5,False,,male,test,fr,94,90,0,1,1,1,0.0,--,--,--,--,--
Contrast Stuff,2022_Oct_14_1109,100,1200,1920,49,2,2.5,False,,male,test,fr,95,90,0,1,0,1,0.0,--,--,--,--,--
Contrast Stuff,2022_Oct_14_1109,100,1200,1920,49,2,2.5,False,,male,test,fr,96,90,0,2,1,1,0.0,--,--,--,--,--
Contrast Stuff,2022_Oct_14_1109,100,1200,1920,49,2,2.5,False,,male,test,fr,97,90,0,2,0,1,0.0,--,--,--,--,--
Contrast Stuff,2022_Oct_14_1109,100,1200,1920,49,2,2.5,False,,male,test,fr,98,90,0,1,1,1,0.0,--,--,--,--,--
Contrast Stuff,2022_Oct_14_1109,100,1200,1920,49,2,2.5,False,,male,test,fr,99,90,0,2,1,1,0.0,--,--,--,--,--
Contrast Stuff,2022_Oct_14_1109,100,1200,1920,49,2,2.5,False,,male,test,fr,100,90,0,2,0,1,0.0,--,--,--,--,--
Contrast Stuff,2022_Oct_14_1109,100,1200,1920,49,2,2.5,False,,male,test,fr,101,90,0,1,1,1,0.0,--,--,--,--,--
Contrast Stuff,2022_Oct_14_1109,100,1200,1920,49,2,2.5,False,,male,test,fr,102,90,0,2,0,1,0.0,--,--,--,--,--
Contrast Stuff,2022_Oct_14_1109,100,1200,1920,49,2,2.5,False,,male,test,fr,103,90,0,1,0,1,0.0,--,--,--,--,--
Contrast Stuff,2022_Oct_14_1109,100,1200,1920,49,2,2.5,False,,male,test,fr,104,90,0,1,0,1,0.0,--,--,--,--,--
Contrast Stuff,2022_Oct_14_1109,100,1200,1920,49,2,2.5,False,,male,test,fr,105,90,0,2,0,1,0.0,--,--,--,--,--
Contrast Stuff,2022_Oct_14_1109,100,1200,1920,49,2,2.5,False,,male,test,fr,106,90,0,1,1,1,0.0,--,--,--,--,--
Contrast Stuff,2022_Oct_14_1109,100,1200,1920,49,2,2.5,False,,male,test,fr,107,90,0,2,0,1,0.0,--,--,--,--,--
Contrast Stuff,2022_Oct_14_1109,100,1200,1920,49,2,2.5,False,,male,test,fr,108,90,0,2,1,1,0.0,--,--,--,--,--
Contrast Stuff,2022_Oct_14_1109,100,1200,1920,49,2,2.5,False,,male,test,fr,109,90,0,1,1,1,0.0,--,--,--,--,--
Contrast Stuff,2022_Oct_14_1109,100,1200,1920,49,2,2.5,False,,male,test,fr,110,90,0,1,1,1,0.0,--,--,--,--,--
Contrast Stuff,2022_Oct_14_1109,100,1200,1920,49,2,2.5,False,,male,test,fr,111,90,0,2,1,1,0.0,--,--,--,--,--
Contrast Stuff,2022_Oct_14_1109,100,1200,1920,49,2,2.5,False,,male,test,fr,112,90,0,2,0,1,0.0,--,--,--,--,--
Contrast Stuff,2022_Oct_14_1109,100,1200,1920,49,2,2.5,False,,male,test,fr,113,90,0,2,1,1,0.0,--,--,--,--,--
Contrast Stuff,2022_Oct_14_1109,100,1200,1920,49,2,2.5,False,,male,test,fr,114,90,0,2,0,1,0.0,--,--,--,--,--
Contrast Stuff,2022_Oct_14_1109,100,1200,1920,49,2,2.5,False,,male,test,fr,115,90,0,2,1,1,0.0,--,--,--,--,--
Contrast Stuff,2022_Oct_14_1109,100,1200,1920,49,2,2.5,False,,male,test,fr,116,90,0,1,0,1,0.0,--,--,--,--,--
Contrast Stuff,2022_Oct_14_1109,100,1200,1920,49,2,2.5,False,,male,test,fr,117,90,0,1,1,1,0.0,--,--,--,--,--
Contrast Stuff,2022_Oct_14_1109,100,1200,1920,49,2,2.5,False,,male,test,fr,118,90,0,2,0,1,0.0,--,--,--,--,--
Contrast Stuff,2022_Oct_14_1109,100,1200,1920,49,2,2.5,False,,male,test,fr,119,90,0,1,0,1,0.0,--,--,--,--,--
Contrast Stuff,2022_Oct_14_1109,100,1200,1920,49,2,2.5,False,,male,test,fr,120,90,0,1,1,1,0.0,--,--,--,--,--
Contrast Stuff,2022_Oct_14_1109,100,1200,1920,49,2,2.5,False,,male,test,fr,121,90,0,2,1,1,0.0,--,--,--,--,--
Contrast Stuff,2022_Oct_14_1109,100,1200,1920,49,2,2.5,False,,male,test,fr,122,90,0,1,0,1,0.0,--,--,--,--,--
Contrast Stuff,2022_Oct_14_1109,100,1200,1920,49,2,2.5,False,,male,test,fr,123,90,0,2,0,1,0.0,--,--,--,--,--
Contrast Stuff,2022_Oct_14_1109,100,1200,1920,49,2,2.5,False,,male,test,fr,124,90,0,1,0,1,0.0,--,--,--,--,--
Contrast Stuff,2022_Oct_14_1109,100,1200,1920,49,2,2.5,False,,male,test,fr,125,90,0,2,1,1,0.0,--,--,--,--,--
Contrast Stuff,2022_Oct_14_1109,100,1200,1920,49,2,2.5,False,,male,test,fr,126,90,0,1,1,1,0.0,--,--,--,--,--
Contrast Stuff,2022_Oct_14_1109,100,1200,1920,49,2,2.5,False,,male,test,fr,127,90,0,2,0,1,0.0,--,--,--,--,--
Contrast Stuff,2022_Oct_14_1109,100,1200,1920,49,2,2.5,False,,male,test,fr,128,90,0,1,1,1,0.0,--,--,--,--,--
Contrast Stuff,2022_Oct_14_1109,100,1200,1920,49,2,2.5,False,,male,test,fr,129,90,0,2,1,1,0.0,--,--,--,--,--
Contrast Stuff,2022_Oct_14_1109,100,1200,1920,49,2,2.5,False,,male,test,fr,130,90,0,2,0,1,0.0,--,--,--,--,--
Contrast Stuff,2022_Oct_14_1109,100,1200,1920,49,2,2.5,False,,male,test,fr,131,90,0,2,0,1,0.0,--,--,--,--,--
Contrast Stuff,2022_Oct_14_1109,100,1200,1920,49,2,2.5,False,,male,test,fr,132,90,0,1,0,1,0.0,--,--,--,--,--
Contrast Stuff,2022_Oct_14_1109,100,1200,1920,49,2,2.5,False,,male,test,fr,133,90,0,2,1,1,0.0,--,--,--,--,--
Contrast Stuff,2022_Oct_14_1109,100,1200,1920,49,2,2.5,False,,male,test,fr,134,90,0,1,0,1,0.0,--,--,--,--,--
Contrast Stuff,2022_Oct_14_1109,100,1200,1920,49,2,2.5,False,,male,test,fr,135,90,0,1,0,1,0.0,--,--,--,--,--
Contrast Stuff,2022_Oct_14_1109,100,1200,1920,49,2,2.5,False,,male,test,fr,136,90,0,2,1,1,0.0,--,--,--,--,--
Contrast Stuff,2022_Oct_14_1109,100,1200,1920,49,2,2.5,False,,male,test,fr,137,90,0,1,0,1,0.0,--,--,--,--,--
Contrast Stuff,2022_Oct_14_1109,100,1200,1920,49,2,2.5,False,,male,test,fr,138,90,0,1,0,1,0.0,--,--,--,--,--
Contrast Stuff,2022_Oct_14_1109,100,1200,1920,49,2,2.5,False,,male,test,fr,139,90,0,1,0,1,0.0,--,--,--,--,--
Contrast Stuff,2022_Oct_14_1109,100,1200,1920,49,2,2.5,False,,male,test,fr,140,90,0,2,0,1,0.0,--,--,--,--,--
Contrast Stuff,2022_Oct_14_1109,100,1200,1920,49,2,2.5,False,,male,test,fr,141,90,0,1,1,1,0.0,--,--,--,--,--
Contrast Stuff,2022_Oct_14_1109,100,1200,1920,49,2,2.5,False,,male,test,fr,142,90,0,1,1,1,0.0,--,--,--,--,--
Contrast Stuff,2022_Oct_14_1109,100,1200,1920,49,2,2.5,False,,male,test,fr,143,90,0,1,1,1,0.0,--,--,--,--,--
Contrast Stuff,2022_Oct_14_1109,100,1200,1920,49,2,2.5,False,,male,test,fr,144,90,0,2,0,1,0.0,--,--,--,--,--
Contrast Stuff,2022_Oct_14_1109,100,1200,1920,49,2,2.5,False,,male,test,fr,145,90,0,1,0,1,0.0,--,--,--,--,--
Contrast Stuff,2022_Oct_14_1109,100,1200,1920,49,2,2.5,False,,male,test,fr,146,90,0,1,1,1,0.0,--,--,--,--,--
Contrast Stuff,2022_Oct_14_1109,100,1200,1920,49,2,2.5,False,,male,test,fr,147,90,0,2,1,1,0.0,--,--,--,--,--
Contrast Stuff,2022_Oct_14_1109,100,1200,1920,49,2,2.5,False,,male,test,fr,148,90,0,1,1,1,0.0,--,--,--,--,--
Contrast Stuff,2022_Oct_14_1109,100,1200,1920,49,2,2.5,False,,male,test,fr,149,90,0,1,0,1,0.0,--,--,--,--,--
Contrast Stuff,2022_Oct_14_1109,100,1200,1920,49,2,2.5,False,,male,test,fr,150,90,0,1,1,1,0.0,--,--,--,--,--
Contrast Stuff,2022_Oct_14_1109,100,1200,1920,49,2,2.5,False,,male,test,fr,151,90,0,1,1,1,0.0,--,--,--,--,--
Contrast Stuff,2022_Oct_14_1109,100,1200,1920,49,2,2.5,False,,male,test,fr,152,90,0,2,1,1,0.0,--,--,--,--,--
Contrast Stuff,2022_Oct_14_1109,100,1200,1920,49,2,2.5,False,,male,test,fr,153,90,0,2,1,1,0.0,--,--,--,--,--
Contrast Stuff,2022_Oct_14_1109,100,1200,1920,49,2,2.5,False,,male,test,fr,154,90,0,1,0,1,0.0,--,--,--,--,--
Contrast Stuff,2022_Oct_14_1109,100,1200,1920,49,2,2.5,False,,male,test,fr,155,90,0,1,0,1,0.0,--,--,--,--,--
Contrast Stuff,2022_Oct_14_1109,100,1200,1920,49,2,2.5,False,,male,test,fr,156,90,0,2,0,1,0.0,--,--,--,--,--
Contrast Stuff,2022_Oct_14_1109,100,1200,1920,49,2,2.5,False,,male,test,fr,157,90,0,1,1,1,0.0,--,--,--,--,--
Contrast Stuff,2022_Oct_14_1109,100,1200,1920,49,2,2.5,False,,male,test,fr,158,90,0,2,1,1,0.0,--,--,--,--,--
Contrast Stuff,2022_Oct_14_1109,100,1200,1920,49,2,2.5,False,,male,test,fr,159,90,0,1,0,1,0.0,--,--,--,--,--
Contrast Stuff,2022_Oct_14_1109,100,1200,1920,49,2,2.5,False,,male,test,fr,160,90,0,2,1,1,0.0,--,--,--,--,--
Contrast Stuff,2022_Oct_14_1109,100,1200,1920,49,2,2.5,False,,male,test,fr,161,361,0,1,0,3,0.0,--,--,--,--,--
Contrast Stuff,2022_Oct_14_1109,100,1200,1920,49,2,2.5,False,,male,test,fr,162,361,0,2,1,3,0.0,--,--,--,--,--
Contrast Stuff,2022_Oct_14_1109,100,1200,1920,49,2,2.5,False,,male,test,fr,163,361,0,1,1,3,0.0,--,--,--,--,--
Contrast Stuff,2022_Oct_14_1109,100,1200,1920,49,2,2.5,False,,male,test,fr,164,361,0,2,1,3,0.0,--,--,--,--,--
Contrast Stuff,2022_Oct_14_1109,100,1200,1920,49,2,2.5,False,,male,test,fr,165,361,0,1,1,3,0.0,--,--,--,--,--
Contrast Stuff,2022_Oct_14_1109,100,1200,1920,49,2,2.5,False,,male,test,fr,166,361,0,1,1,3,0.0,--,--,--,--,--
Contrast Stuff,2022_Oct_14_1109,100,1200,1920,49,2,2.5,False,,male,test,fr,167,361,0,2,0,3,0.0,--,--,--,--,--
Contrast Stuff,2022_Oct_14_1109,100,1200,1920,49,2,2.5,False,,male,test,fr,168,361,0,2,1,3,0.0,--,--,--,--,--
Contrast Stuff,2022_Oct_14_1109,100,1200,1920,49,2,2.5,False,,male,test,fr,169,361,0,1,0,3,0.0,--,--,--,--,--
Contrast Stuff,2022_Oct_14_1109,100,1200,1920,49,2,2.5,False,,male,test,fr,170,361,0,1,0,3,0.0,--,--,--,--,--
Contrast Stuff,2022_Oct_14_1109,100,1200,1920,49,2,2.5,False,,male,test,fr,171,361,0,2,1,3,0.0,--,--,--,--,--
Contrast Stuff,2022_Oct_14_1109,100,1200,1920,49,2,2.5,False,,male,test,fr,172,361,0,1,0,3,0.0,--,--,--,--,--
Contrast Stuff,2022_Oct_14_1109,100,1200,1920,49,2,2.5,False,,male,test,fr,173,361,0,2,1,3,0.0,--,--,--,--,--
Contrast Stuff,2022_Oct_14_1109,100,1200,1920,49,2,2.5,False,,male,test,fr,174,361,0,1,0,3,0.0,--,--,--,--,--
Contrast Stuff,2022_Oct_14_1109,100,1200,1920,49,2,2.5,False,,male,test,fr,175,361,0,2,1,3,0.0,--,--,--,--,--
Contrast Stuff,2022_Oct_14_1109,100,1200,1920,49,2,2.5,False,,male,test,fr,176,361,0,1,1,3,0.0,--,--,--,--,--
Contrast Stuff,2022_Oct_14_1109,100,1200,1920,49,2,2.5,False,,male,test,fr,177,361,0,1,0,3,0.0,--,--,--,--,--
Contrast Stuff,2022_Oct_14_1109,100,1200,1920,49,2,2.5,False,,male,test,fr,178,361,0,2,0,3,0.0,--,--,--,--,--
Contrast Stuff,2022_Oct_14_1109,100,1200,1920,49,2,2.5,False,,male,test,fr,179,361,0,2,1,3,0.0,--,--,--,--,--
Contrast Stuff,2022_Oct_14_1109,100,1200,1920,49,2,2.5,False,,male,test,fr,180,361,0,1,1,3,0.0,--,--,--,--,--
Contrast Stuff,2022_Oct_14_1109,100,1200,1920,49,2,2.5,False,,male,test,fr,181,361,0,1,1,3,0.0,--,--,--,--,--
Contrast Stuff,2022_Oct_14_1109,100,1200,1920,49,2,2.5,False,,male,test,fr,182,361,0,1,1,3,0.0,--,--,--,--,--
Contrast Stuff,2022_Oct_14_1109,100,1200,1920,49,2,2.5,False,,male,test,fr,183,361,0,2,0,3,0.0,--,--,--,--,--
Contrast Stuff,2022_Oct_14_1109,100,1200,1920,49,2,2.5,False,,male,test,fr,184,361,0,2,0,3,0.0,--,--,--,--,--
Contrast Stuff,2022_Oct_14_1109,100,1200,1920,49,2,2.5,False,,male,test,fr,185,361,0,1,0,3,0.0,--,--,--,--,--
Contrast Stuff,2022_Oct_14_1109,100,1200,1920,49,2,2.5,False,,male,test,fr,186,361,0,2,0,3,0.0,--,--,--,--,--
Contrast Stuff,2022_Oct_14_1109,100,1200,1920,49,2,2.5,False,,male,test,fr,187,361,0,2,0,3,0.0,--,--,--,--,--
Contrast Stuff,2022_Oct_14_1109,100,1200,1920,49,2,2.5,False,,male,test,fr,188,361,0,1,1,3,0.0,--,--,--,--,--
Contrast Stuff,2022_Oct_14_1109,100,1200,1920,49,2,2.5,False,,male,test,fr,189,361,0,2,0,3,0.0,--,--,--,--,--
Contrast Stuff,2022_Oct_14_1109,100,1200,1920,49,2,2.5,False,,male,test,fr,190,361,0,2,1,3,0.0,--,--,--,--,--
Contrast Stuff,2022_Oct_14_1109,100,1200,1920,49,2,2.5,False,,male,test,fr,191,361,0,1,1,3,0.0,--,--,--,--,--
Contrast Stuff,2022_Oct_14_1109,100,1200,1920,49,2,2.5,False,,male,test,fr,192,361,0,2,0,3,0.0,--,--,--,--,--
Contrast Stuff,2022_Oct_14_1109,100,1200,1920,49,2,2.5,False,,male,test,fr,193,361,0,2,1,3,0.0,--,--,--,--,--
Contrast Stuff,2022_Oct_14_1109,100,1200,1920,49,2,2.5,False,,male,test,fr,194,361,0,2,1,3,0.0,--,--,--,--,--
Contrast Stuff,2022_Oct_14_1109,100,1200,1920,49,2,2.5,False,,male,test,fr,195,361,0,1,1,3,0.0,--,--,--,--,--
Contrast Stuff,2022_Oct_14_1109,100,1200,1920,49,2,2.5,False,,male,test,fr,196,361,0,2,0,3,0.0,--,--,--,--,--
Contrast Stuff,2022_Oct_14_1109,100,1200,1920,49,2,2.5,False,,male,test,fr,197,361,0,2,1,3,0.0,--,--,--,--,--
Contrast Stuff,2022_Oct_14_1109,100,1200,1920,49,2,2.5,False,,male,test,fr,198,361,0,2,0,3,0.0,--,--,--,--,--
Contrast Stuff,2022_Oct_14_1109,100,1200,1920,49,2,2.5,False,,male,test,fr,199,361,0,2,0,3,0.0,--,--,--,--,--
Contrast Stuff,2022_Oct_14_1109,100,1200,1920,49,2,2.5,False,,male,test,fr,200,361,0,1,1,3,0.0,--,--,--,--,--
Contrast Stuff,2022_Oct_14_1109,100,1200,1920,49,2,2.5,False,,male,test,fr,201,361,0,2,1,3,0.0,--,--,--,--,--
Contrast Stuff,2022_Oct_14_1109,100,1200,1920,49,2,2.5,False,,male,test,fr,202,361,0,1,1,3,0.0,--,--,--,--,--
Contrast Stuff,2022_Oct_14_1109,100,1200,1920,49,2,2.5,False,,male,test,fr,203,361,0,2,1,3,0.0,--,--,--,--,--
Contrast Stuff,2022_Oct_14_1109,100,1200,1920,49,2,2.5,False,,male,test,fr,204,361,0,1,0,3,0.0,--,--,--,--,--
Contrast Stuff,2022_Oct_14_1109,100,1200,1920,49,2,2.5,False,,male,test,fr,205,361,0,1,1,3,0.0,--,--,--,--,--
Contrast Stuff,2022_Oct_14_1109,100,1200,1920,49,2,2.5,False,,male,test,fr,206,361,0,1,0,3,0.0,--,--,--,--,--
Contrast Stuff,2022_Oct_14_1109,100,1200,1920,49,2,2.5,False,,male,test,fr,207,361,0,2,0,3,0.0,--,--,--,--,--
Contrast Stuff,2022_Oct_14_1109,100,1200,1920,49,2,2.5,False,,male,test,fr,208,361,0,2,0,3,0.0,--,--,--,--,--
Contrast Stuff,2022_Oct_14_1109,100,1200,1920,49,2,2.5,False,,male,test,fr,209,361,0,1,0,3,0.0,--,--,--,--,--
Contrast Stuff,2022_Oct_14_1109,100,1200,1920,49,2,2.5,False,,male,test,fr,210,361,0,2,0,3,0.0,--,--,--,--,--
Contrast Stuff,2022_Oct_14_1109,100,1200,1920,49,2,2.5,False,,male,test,fr,211,361,0,1,0,3,0.0,--,--,--,--,--
Contrast Stuff,2022_Oct_14_1109,100,1200,1920,49,2,2.5,False,,male,test,fr,212,361,0,2,0,3,0.0,--,--,--,--,--
Contrast Stuff,2022_Oct_14_1109,100,1200,1920,49,2,2.5,False,,male,test,fr,213,361,0,2,0,3,0.0,--,--,--,--,--
Contrast Stuff,2022_Oct_14_1109,100,1200,1920,49,2,2.5,False,,male,test,fr,214,361,0,1,0,3,0.0,--,--,--,--,--
Contrast Stuff,2022_Oct_14_1109,100,1200,1920,49,2,2.5,False,,male,test,fr,215,361,0,2,0,3,0.0,--,--,--,--,--
Contrast Stuff,2022_Oct_14_1109,100,1200,1920,49,2,2.5,False,,male,test,fr,216,361,0,2,1,3,0.0,--,--,--,--,--
Contrast Stuff,2022_Oct_14_1109,100,1200,1920,49,2,2.5,False,,male,test,fr,217,361,0,2,0,3,0.0,--,--,--,--,--
Contrast Stuff,2022_Oct_14_1109,100,1200,1920,49,2,2.5,False,,male,test,fr,218,361,0,1,0,3,0.0,--,--,--,--,--
Contrast Stuff,2022_Oct_14_1109,100,1200,1920,49,2,2.5,False,,male,test,fr,219,361,0,1,0,3,0.0,--,--,--,--,--
Contrast Stuff,2022_Oct_14_1109,100,1200,1920,49,2,2.5,False,,male,test,fr,220,361,0,2,0,3,0.0,--,--,--,--,--
Contrast Stuff,2022_Oct_14_1109,100,1200,1920,49,2,2.5,False,,male,test,fr,221,361,0,2,1,3,0.0,--,--,--,--,--
Contrast Stuff,2022_Oct_14_1109,100,1200,1920,49,2,2.5,False,,male,test,fr,222,361,0,1,1,3,0.0,--,--,--,--,--
Contrast Stuff,2022_Oct_14_1109,100,1200,1920,49,2,2.5,False,,male,test,fr,223,361,0,2,1,3,0.0,--,--,--,--,--
Contrast Stuff,2022_Oct_14_1109,100,1200,1920,49,2,2.5,False,,male,test,fr,224,361,0,2,1,3,0.0,--,--,--,--,--
Contrast Stuff,2022_Oct_14_1109,100,1200,1920,49,2,2.5,False,,male,test,fr,225,361,0,1,1,3,0.0,--,--,--,--,--
Contrast Stuff,2022_Oct_14_1109,100,1200,1920,49,2,2.5,False,,male,test,fr,226,361,0,1,0,3,0.0,--,--,--,--,--
Contrast Stuff,2022_Oct_14_1109,100,1200,1920,49,2,2.5,False,,male,test,fr,227,361,0,2,1,3,0.0,--,--,--,--,--
Contrast Stuff,2022_Oct_14_1109,100,1200,1920,49,2,2.5,False,,male,test,fr,228,361,0,1,1,3,0.0,--,--,--,--,--
Contrast Stuff,2022_Oct_14_1109,100,1200,1920,49,2,2.5,False,,male,test,fr,229,361,0,1,0,3,0.0,--,--,--,--,--
Contrast Stuff,2022_Oct_14_1109,100,1200,1920,49,2,2.5,False,,male,test,fr,230,361,0,1,1,3,0.0,--,--,--,--,--
Contrast Stuff,2022_Oct_14_1109,100,1200,1920,49,2,2.5,False,,male,test,fr,231,361,0,1,0,3,0.0,--,--,--,--,--
Contrast Stuff,2022_Oct_14_1109,100,1200,1920,49,2,2.5,False,,male,test,fr,232,361,0,1,0,3,0.0,--,--,--,--,--
Contrast Stuff,2022_Oct_14_1109,100,1200,1920,49,2,2.5,False,,male,test,fr,233,361,0,1,0,3,0.0,--,--,--,--,--
Contrast Stuff,2022_Oct_14_1109,100,1200,1920,49,2,2.5,False,,male,test,fr,234,361,0,1,1,3,0.0,--,--,--,--,--
Contrast Stuff,2022_Oct_14_1109,100,1200,1920,49,2,2.5,False,,male,test,fr,235,361,0,2,0,3,0.0,--,--,--,--,--
Contrast Stuff,2022_Oct_14_1109,100,1200,1920,49,2,2.5,False,,male,test,fr,236,361,0,2,1,3,0.0,--,--,--,--,--
Contrast Stuff,2022_Oct_14_1109,100,1200,1920,49,2,2.5,False,,male,test,fr,237,361,0,1,0,3,0.0,--,--,--,--,--
Contrast Stuff,2022_Oct_14_1109,100,1200,1920,49,2,2.5,False,,male,test,fr,238,361,0,1,1,3,0.0,--,--,--,--,--
Contrast Stuff,2022_Oct_14_1109,100,1200,1920,49,2,2.5,False,,male,test,fr,239,361,0,1,1,3,0.0,--,--,--,--,--
Contrast Stuff,2022_Oct_14_1109,100,1200,1920,49,2,2.5,False,,male,test,fr,240,361,0,2,1,3,0.0,--,--,--,--,--
Contrast Stuff,2022_Oct_14_1109,100,1200,1920,49,2,2.5,False,,male,test,fr,241,90,0,1,0,1,0.0,--,--,--,--,--
Contrast Stuff,2022_Oct_14_1109,100,1200,1920,49,2,2.5,False,,male,test,fr,242,90,0,2,0,1,0.0,--,--,--,--,--
Contrast Stuff,2022_Oct_14_1109,100,1200,1920,49,2,2.5,False,,male,test,fr,243,90,0,1,0,1,0.0,--,--,--,--,--
Contrast Stuff,2022_Oct_14_1109,100,1200,1920,49,2,2.5,False,,male,test,fr,244,90,0,2,0,1,0.0,--,--,--,--,--
Contrast Stuff,2022_Oct_14_1109,100,1200,1920,49,2,2.5,False,,male,test,fr,245,90,0,2,1,1,0.0,--,--,--,--,--
Contrast Stuff,2022_Oct_14_1109,100,1200,1920,49,2,2.5,False,,male,test,fr,246,90,0,2,0,1,0.0,--,--,--,--,--
Contrast Stuff,2022_Oct_14_1109,100,1200,1920,49,2,2.5,False,,male,test,fr,247,90,0,2,1,1,0.0,--,--,--,--,--
Contrast Stuff,2022_Oct_14_1109,100,1200,1920,49,2,2.5,False,,male,test,fr,248,90,0,2,1,1,0.0,--,--,--,--,--
Contrast Stuff,2022_Oct_14_1109,100,1200,1920,49,2,2.5,False,,male,test,fr,249,90,0,2,1,1,0.0,--,--,--,--,--
Contrast Stuff,2022_Oct_14_1109,100,1200,1920,49,2,2.5,False,,male,test,fr,250,90,0,2,0,1,0.0,--,--,--,--,--
Contrast Stuff,2022_Oct_14_1109,100,1200,1920,49,2,2.5,False,,male,test,fr,251,90,0,1,1,1,0.0,--,--,--,--,--
Contrast Stuff,2022_Oct_14_1109,100,1200,1920,49,2,2.5,False,,male,test,fr,252,90,0,2,0,1,0.0,--,--,--,--,--
Contrast Stuff,2022_Oct_14_1109,100,1200,1920,49,2,2.5,False,,male,test,fr,253,90,0,1,1,1,0.0,--,--,--,--,--
Contrast Stuff,2022_Oct_14_1109,100,1200,1920,49,2,2.5,False,,male,test,fr,254,90,0,1,1,1,0.0,--,--,--,--,--
Contrast Stuff,2022_Oct_14_1109,100,1200,1920,49,2,2.5,False,,male,test,fr,255,90,0,1,0,1,0.0,--,--,--,--,--
Contrast Stuff,2022_Oct_14_1109,100,1200,1920,49,2,2.5,False,,male,test,fr,256,90,0,2,1,1,0.0,--,--,--,--,--
Contrast Stuff,2022_Oct_14_1109,100,1200,1920,49,2,2.5,False,,male,test,fr,257,90,0,2,0,1,0.0,--,--,--,--,--
Contrast Stuff,2022_Oct_14_1109,100,1200,1920,49,2,2.5,False,,male,test,fr,258,90,0,1,1,1,0.0,--,--,--,--,--
Contrast Stuff,2022_Oct_14_1109,100,1200,1920,49,2,2.5,False,,male,test,fr,259,90,0,2,1,1,0.0,--,--,--,--,--
Contrast Stuff,2022_Oct_14_1109,100,1200,1920,49,2,2.5,False,,male,test,fr,260,90,0,2,0,1,0.0,--,--,--,--,--
Contrast Stuff,2022_Oct_14_1109,100,1200,1920,49,2,2.5,False,,male,test,fr,261,90,0,1,1,1,0.0,--,--,--,--,--
Contrast Stuff,2022_Oct_14_1109,100,1200,1920,49,2,2.5,False,,male,test,fr,262,90,0,2,0,1,0.0,--,--,--,--,--
Contrast Stuff,2022_Oct_14_1109,100,1200,1920,49,2,2.5,False,,male,test,fr,263,90,0,1,0,1,0.0,--,--,--,--,--
Contrast Stuff,2022_Oct_14_1109,100,1200,1920,49,2,2.5,False,,male,test,fr,264,90,0,1,0,1,0.0,--,--,--,--,--
Contrast Stuff,2022_Oct_14_1109,100,1200,1920,49,2,2.5,False,,male,test,fr,265,90,0,2,0,1,0.0,--,--,--,--,--
Contrast Stuff,2022_Oct_14_1109,100,1200,1920,49,2,2.5,False,,male,test,fr,266,90,0,1,1,1,0.0,--,--,--,--,--
Contrast Stuff,2022_Oct_14_1109,100,1200,1920,49,2,2.5,False,,male,test,fr,267,90,0,2,0,1,0.0,--,--,--,--,--
Contrast Stuff,2022_Oct_14_1109,100,1200,1920,49,2,2.5,False,,male,test,fr,268,90,0,2,1,1,0.0,--,--,--,--,--
Contrast Stuff,2022_Oct_14_1109,100,1200,1920,49,2,2.5,False,,male,test,fr,269,90,0,1,1,1,0.0,--,--,--,--,--
Contrast Stuff,2022_Oct_14_1109,100,1200,1920,49,2,2.5,False,,male,test,fr,270,90,0,1,1,1,0.0,--,--,--,--,--
Contrast Stuff,2022_Oct_14_1109,100,1200,1920,49,2,2.5,False,,male,test,fr,271,90,0,2,1,1,0.0,--,--,--,--,--
Contrast Stuff,2022_Oct_14_1109,100,1200,1920,49,2,2.5,False,,male,test,fr,272,90,0,2,0,1,0.0,--,--,--,--,--
Contrast Stuff,2022_Oct_14_1109,100,1200,1920,49,2,2.5,False,,male,test,fr,273,90,0,2,1,1,0.0,--,--,--,--,--
Contrast Stuff,2022_Oct_14_1109,100,1200,1920,49,2,2.5,False,,male,test,fr,274,90,0,2,0,1,0.0,--,--,--,--,--
Contrast Stuff,2022_Oct_14_1109,100,1200,1920,49,2,2.5,False,,male,test,fr,275,90,0,2,1,1,0.0,--,--,--,--,--
Contrast Stuff,2022_Oct_14_1109,100,1200,1920,49,2,2.5,False,,male,test,fr,276,90,0,1,0,1,0.0,--,--,--,--,--
Contrast Stuff,2022_Oct_14_1109,100,1200,1920,49,2,2.5,False,,male,test,fr,277,90,0,1,1,1,0.0,--,--,--,--,--
Contrast Stuff,2022_Oct_14_1109,100,1200,1920,49,2,2.5,False,,male,test,fr,278,90,0,2,0,1,0.0,--,--,--,--,--
Contrast Stuff,2022_Oct_14_1109,100,1200,1920,49,2,2.5,False,,male,test,fr,279,90,0,1,0,1,0.0,--,--,--,--,--
Contrast Stuff,2022_Oct_14_1109,100,1200,1920,49,2,2.5,False,,male,test,fr,280,90,0,1,1,1,0.0,--,--,--,--,--
Contrast Stuff,2022_Oct_14_1109,100,1200,1920,49,2,2.5,False,,male,test,fr,281,90,0,2,1,1,0.0,--,--,--,--,--
Contrast Stuff,2022_Oct_14_1109,100,1200,1920,49,2,2.5,False,,male,test,fr,282,90,0,1,0,1,0.0,--,--,--,--,--
Contrast Stuff,2022_Oct_14_1109,100,1200,1920,49,2,2.5,False,,male,test,fr,283,90,0,2,0,1,0.0,--,--,--,--,--
Contrast Stuff,2022_Oct_14_1109,100,1200,1920,49,2,2.5,False,,male,test,fr,284,90,0,1,0,1,0.0,--,--,--,--,--
Contrast Stuff,2022_Oct_14_1109,100,1200,1920,49,2,2.5,False,,male,test,fr,285,90,0,2,1,1,0.0,--,--,--,--,--
Contrast Stuff,2022_Oct_14_1109,100,1200,1920,49,2,2.5,False,,male,test,fr,286,90,0,1,1,1,0.0,--,--,--,--,--
Contrast Stuff,2022_Oct_14_1109,100,1200,1920,49,2,2.5,False,,male,test,fr,287,90,0,2,0,1,0.0,--,--,--,--,--
Contrast Stuff,2022_Oct_14_1109,100,1200,1920,49,2,2.5,False,,male,test,fr,288,90,0,1,1,1,0.0,--,--,--,--,--
Contrast Stuff,2022_Oct_14_1109,100,1200,1920,49,2,2.5,False,,male,test,fr,289,90,0,2,1,1,0.0,--,--,--,--,--
Contrast Stuff,2022_Oct_14_1109,100,1200,1920,49,2,2.5,False,,male,test,fr,290,90,0,2,0,1,0.0,--,--,--,--,--
Contrast Stuff,2022_Oct_14_1109,100,1200,1920,49,2,2.5,False,,male,test,fr,291,90,0,2,0,1,0.0,--,--,--,--,--
Contrast Stuff,2022_Oct_14_1109,100,1200,1920,49,2,2.5,False,,male,test,fr,292,90,0,1,0,1,0.0,--,--,--,--,--
Contrast Stuff,2022_Oct_14_1109,100,1200,1920,49,2,2.5,False,,male,test,fr,293,90,0,2,1,1,0.0,--,--,--,--,--
Contrast Stuff,2022_Oct_14_1109,100,1200,1920,49,2,2.5,False,,male,test,fr,294,90,0,1,0,1,0.0,--,--,--,--,--
Contrast Stuff,2022_Oct_14_1109,100,1200,1920,49,2,2.5,False,,male,test,fr,295,90,0,1,0,1,0.0,--,--,--,--,--
Contrast Stuff,2022_Oct_14_1109,100,1200,1920,49,2,2.5,False,,male,test,fr,296,90,0,2,1,1,0.0,--,--,--,--,--
Contrast Stuff,2022_Oct_14_1109,100,1200,1920,49,2,2.5,False,,male,test,fr,297,90,0,1,0,1,0.0,--,--,--,--,--
Contrast Stuff,2022_Oct_14_1109,100,1200,1920,49,2,2.5,False,,male,test,fr,298,90,0,1,0,1,0.0,--,--,--,--,--
Contrast Stuff,2022_Oct_14_1109,100,1200,1920,49,2,2.5,False,,male,test,fr,299,90,0,1,0,1,0.0,--,--,--,--,--
Contrast Stuff,2022_Oct_14_1109,100,1200,1920,49,2,2.5,False,,male,test,fr,300,90,0,2,0,1,0.0,--,--,--,--,--
Contrast Stuff,2022_Oct_14_1109,100,1200,1920,49,2,2.5,False,,male,test,fr,301,90,0,1,1,1,0.0,--,--,--,--,--
Contrast Stuff,2022_Oct_14_1109,100,1200,1920,49,2,2.5,False,,male,test,fr,302,90,0,1,1,1,0.0,--,--,--,--,--
Contrast Stuff,2022_Oct_14_1109,100,1200,1920,49,2,2.5,False,,male,test,fr,303,90,0,1,1,1,0.0,--,--,--,--,--
Contrast Stuff,2022_Oct_14_1109,100,1200,1920,49,2,2.5,False,,male,test,fr,304,90,0,2,0,1,0.0,--,--,--,--,--
Contrast Stuff,2022_Oct_14_1109,100,1200,1920,49,2,2.5,False,,male,test,fr,305,90,0,1,0,1,0.0,--,--,--,--,--
Contrast Stuff,2022_Oct_14_1109,100,1200,1920,49,2,2.5,False,,male,test,fr,306,90,0,1,1,1,0.0,--,--,--,--,--
Contrast Stuff,2022_Oct_14_1109,100,1200,1920,49,2,2.5,False,,male,test,fr,307,90,0,2,1,1,0.0,--,--,--,--,--
Contrast Stuff,2022_Oct_14_1109,100,1200,1920,49,2,2.5,False,,male,test,fr,308,90,0,1,1,1,0.0,--,--,--,--,--
Contrast Stuff,2022_Oct_14_1109,100,1200,1920,49,2,2.5,False,,male,test,fr,309,90,0,1,0,1,0.0,--,--,--,--,--
Contrast Stuff,2022_Oct_14_1109,100,1200,1920,49,2,2.5,False,,male,test,fr,310,90,0,1,1,1,0.0,--,--,--,--,--
Contrast Stuff,2022_Oct_14_1109,100,1200,1920,49,2,2.5,False,,male,test,fr,311,90,0,1,1,1,0.0,--,--,--,--,--
Contrast Stuff,2022_Oct_14_1109,100,1200,1920,49,2,2.5,False,,male,test,fr,312,90,0,2,1,1,0.0,--,--,--,--,--
Contrast Stuff,2022_Oct_14_1109,100,1200,1920,49,2,2.5,False,,male,test,fr,313,90,0,2,1,1,0.0,--,--,--,--,--
Contrast Stuff,2022_Oct_14_1109,100,1200,1920,49,2,2.5,False,,male,test,fr,314,90,0,1,0,1,0.0,--,--,--,--,--
Contrast Stuff,2022_Oct_14_1109,100,1200,1920,49,2,2.5,False,,male,test,fr,315,90,0,1,0,1,0.0,--,--,--,--,--
Contrast Stuff,2022_Oct_14_1109,100,1200,1920,49,2,2.5,False,,male,test,fr,316,90,0,2,0,1,0.0,--,--,--,--,--
Contrast Stuff,2022_Oct_14_1109,100,1200,1920,49,2,2.5,False,,male,test,fr,317,90,0,1,1,1,0.0,--,--,--,--,--
Contrast Stuff,2022_Oct_14_1109,100,1200,1920,49,2,2.5,False,,male,test,fr,318,90,0,2,1,1,0.0,--,--,--,--,--
Contrast Stuff,2022_Oct_14_1109,100,1200,1920,49,2,2.5,False,,male,test,fr,319,90,0,1,0,1,0.0,--,--,--,--,--
Contrast Stuff,2022_Oct_14_1109,100,1200,1920,49,2,2.5,False,,male,test,fr,320,90,0,2,1,1,0.0,--,--,--,--,--
Contrast Stuff,2022_Oct_14_1109,100,1200,1920,49,2,2.5,False,,male,test,fr,321,361,0,1,0,3,0.0,--,--,--,--,--
Contrast Stuff,2022_Oct_14_1109,100,1200,1920,49,2,2.5,False,,male,test,fr,322,361,0,2,1,3,0.0,--,--,--,--,--
Contrast Stuff,2022_Oct_14_1109,100,1200,1920,49,2,2.5,False,,male,test,fr,323,361,0,1,1,3,0.0,--,--,--,--,--
Contrast Stuff,2022_Oct_14_1109,100,1200,1920,49,2,2.5,False,,male,test,fr,324,361,0,2,1,3,0.0,--,--,--,--,--
Contrast Stuff,2022_Oct_14_1109,100,1200,1920,49,2,2.5,False,,male,test,fr,325,361,0,1,1,3,0.0,--,--,--,--,--
Contrast Stuff,2022_Oct_14_1109,100,1200,1920,49,2,2.5,False,,male,test,fr,326,361,0,1,1,3,0.0,--,--,--,--,--
Contrast Stuff,2022_Oct_14_1109,100,1200,1920,49,2,2.5,False,,male,test,fr,327,361,0,2,0,3,0.0,--,--,--,--,--
Contrast Stuff,2022_Oct_14_1109,100,1200,1920,49,2,2.5,False,,male,test,fr,328,361,0,2,1,3,0.0,--,--,--,--,--
Contrast Stuff,2022_Oct_14_1109,100,1200,1920,49,2,2.5,False,,male,test,fr,329,361,0,1,0,3,0.0,--,--,--,--,--
Contrast Stuff,2022_Oct_14_1109,100,1200,1920,49,2,2.5,False,,male,test,fr,330,361,0,1,0,3,0.0,--,--,--,--,--
Contrast Stuff,2022_Oct_14_1109,100,1200,1920,49,2,2.5,False,,male,test,fr,331,361,0,2,1,3,0.0,--,--,--,--,--
Contrast Stuff,2022_Oct_14_1109,100,1200,1920,49,2,2.5,False,,male,test,fr,332,361,0,1,0,3,0.0,--,--,--,--,--
Contrast Stuff,2022_Oct_14_1109,100,1200,1920,49,2,2.5,False,,male,test,fr,333,361,0,2,1,3,0.0,--,--,--,--,--
Contrast Stuff,2022_Oct_14_1109,100,1200,1920,49,2,2.5,False,,male,test,fr,334,361,0,1,0,3,0.0,--,--,--,--,--
Contrast Stuff,2022_Oct_14_1109,100,1200,1920,49,2,2.5,False,,male,test,fr,335,361,0,2,1,3,0.0,--,--,--,--,--
Contrast Stuff,2022_Oct_14_1109,100,1200,1920,49,2,2.5,False,,male,test,fr,336,361,0,1,1,3,0.0,--,--,--,--,--
Contrast Stuff,2022_Oct_14_1109,100,1200,1920,49,2,2.5,False,,male,test,fr,337,361,0,1,0,3,0.0,--,--,--,--,--
Contrast Stuff,2022_Oct_14_1109,100,1200,1920,49,2,2.5,False,,male,test,fr,338,361,0,2,0,3,0.0,--,--,--,--,--
Contrast Stuff,2022_Oct_14_1109,100,1200,1920,49,2,2.5,False,,male,test,fr,339,361,0,2,1,3,0.0,--,--,--,--,--
Contrast Stuff,2022_Oct_14_1109,100,1200,1920,49,2,2.5,False,,male,test,fr,340,361,0,1,1,3,0.0,--,--,--,--,--
Contrast Stuff,2022_Oct_14_1109,100,1200,1920,49,2,2.5,False,,male,test,fr,341,361,0,1,1,3,0.0,--,--,--,--,--
Contrast Stuff,2022_Oct_14_1109,100,1200,1920,49,2,2.5,False,,male,test,fr,342,361,0,1,1,3,0.0,--,--,--,--,--
Contrast Stuff,2022_Oct_14_1109,100,1200,1920,49,2,2.5,False,,male,test,fr,343,361,0,2,0,3,0.0,--,--,--,--,--
Contrast Stuff,2022_Oct_14_1109,100,1200,1920,49,2,2.5,False,,male,test,fr,344,361,0,2,0,3,0.0,--,--,--,--,--
Contrast Stuff,2022_Oct_14_1109,100,1200,1920,49,2,2.5,False,,male,test,fr,345,361,0,1,0,3,0.0,--,--,--,--,--
Contrast Stuff,2022_Oct_14_1109,100,1200,1920,49,2,2.5,False,,male,test,fr,346,361,0,2,0,3,0.0,--,--,--,--,--
Contrast Stuff,2022_Oct_14_1109,100,1200,1920,49,2,2.5,False,,male,test,fr,347,361,0,2,0,3,0.0,--,--,--,--,--
Contrast Stuff,2022_Oct_14_1109,100,1200,1920,49,2,2.5,False,,male,test,fr,348,361,0,1,1,3,0.0,--,--,--,--,--
Contrast Stuff,2022_Oct_14_1109,100,1200,1920,49,2,2.5,False,,male,test,fr,349,361,0,2,0,3,0.0,--,--,--,--,--
Contrast Stuff,2022_Oct_14_1109,100,1200,1920,49,2,2.5,False,,male,test,fr,350,361,0,2,1,3,0.0,--,--,--,--,--
Contrast Stuff,2022_Oct_14_1109,100,1200,1920,49,2,2.5,False,,male,test,fr,351,361,0,1,1,3,0.0,--,--,--,--,--
Contrast Stuff,2022_Oct_14_1109,100,1200,1920,49,2,2.5,False,,male,test,fr,352,361,0,2,0,3,0.0,--,--,--,--,--
Contrast Stuff,2022_Oct_14_1109,100,1200,1920,49,2,2.5,False,,male,test,fr,353,361,0,2,1,3,0.0,--,--,--,--,--
Contrast Stuff,2022_Oct_14_1109,100,1200,1920,49,2,2.5,False,,male,test,fr,354,361,0,2,1,3,0.0,--,--,--,--,--
Contrast Stuff,2022_Oct_14_1109,100,1200,1920,49,2,2.5,False,,male,test,fr,355,361,0,1,1,3,0.0,--,--,--,--,--
Contrast Stuff,2022_Oct_14_1109,100,1200,1920,49,2,2.5,False,,male,test,fr,356,361,0,2,0,3,0.0,--,--,--,--,--
Contrast Stuff,2022_Oct_14_1109,100,1200,1920,49,2,2.5,False,,male,test,fr,357,361,0,2,1,3,0.0,--,--,--,--,--
Contrast Stuff,2022_Oct_14_1109,100,1200,1920,49,2,2.5,False,,male,test,fr,358,361,0,2,0,3,0.0,--,--,--,--,--
Contrast Stuff,2022_Oct_14_1109,100,1200,1920,49,2,2.5,False,,male,test,fr,359,361,0,2,0,3,0.0,--,--,--,--,--
Contrast Stuff,2022_Oct_14_1109,100,1200,1920,49,2,2.5,False,,male,test,fr,360,361,0,1,1,3,0.0,--,--,--,--,--
Contrast Stuff,2022_Oct_14_1109,100,1200,1920,49,2,2.5,False,,male,test,fr,361,361,0,2,1,3,0.0,--,--,--,--,--
Contrast Stuff,2022_Oct_14_1109,100,1200,1920,49,2,2.5,False,,male,test,fr,362,361,0,1,1,3,0.0,--,--,--,--,--
Contrast Stuff,2022_Oct_14_1109,100,1200,1920,49,2,2.5,False,,male,test,fr,363,361,0,2,1,3,0.0,--,--,--,--,--
Contrast Stuff,2022_Oct_14_1109,100,1200,1920,49,2,2.5,False,,male,test,fr,364,361,0,1,0,3,0.0,--,--,--,--,--
Contrast Stuff,2022_Oct_14_1109,100,1200,1920,49,2,2.5,False,,male,test,fr,365,361,0,1,1,3,0.0,--,--,--,--,--
Contrast Stuff,2022_Oct_14_1109,100,1200,1920,49,2,2.5,False,,male,test,fr,366,361,0,1,0,3,0.0,--,--,--,--,--
Contrast Stuff,2022_Oct_14_1109,100,1200,1920,49,2,2.5,False,,male,test,fr,367,361,0,2,0,3,0.0,--,--,--,--,--
Contrast Stuff,2022_Oct_14_1109,100,1200,1920,49,2,2.5,False,,male,test,fr,368,361,0,2,0,3,0.0,--,--,--,--,--
Contrast Stuff,2022_Oct_14_1109,100,1200,1920,49,2,2.5,False,,male,test,fr,369,361,0,1,0,3,0.0,--,--,--,--,--
Contrast Stuff,2022_Oct_14_1109,100,1200,1920,49,2,2.5,False,,male,test,fr,370,361,0,2,0,3,0.0,--,--,--,--,--
Contrast Stuff,2022_Oct_14_1109,100,1200,1920,49,2,2.5,False,,male,test,fr,371,361,0,1,0,3,0.0,--,--,--,--,--
Contrast Stuff,2022_Oct_14_1109,100,1200,1920,49,2,2.5,False,,male,test,fr,372,361,0,2,0,3,0.0,--,--,--,--,--
Contrast Stuff,2022_Oct_14_1109,100,1200,1920,49,2,2.5,False,,male,test,fr,373,361,0,2,0,3,0.0,--,--,--,--,--
Contrast Stuff,2022_Oct_14_1109,100,1200,1920,49,2,2.5,False,,male,test,fr,374,361,0,1,0,3,0.0,--,--,--,--,--
Contrast Stuff,2022_Oct_14_1109,100,1200,1920,49,2,2.5,False,,male,test,fr,375,361,0,2,0,3,0.0,--,--,--,--,--
Contrast Stuff,2022_Oct_14_1109,100,1200,1920,49,2,2.5,False,,male,test,fr,376,361,0,2,1,3,0.0,--,--,--,--,--
Contrast Stuff,2022_Oct_14_1109,100,1200,1920,49,2,2.5,False,,male,test,fr,377,361,0,2,0,3,0.0,--,--,--,--,--
Contrast Stuff,2022_Oct_14_1109,100,1200,1920,49,2,2.5,False,,male,test,fr,378,361,0,1,0,3,0.0,--,--,--,--,--
Contrast Stuff,2022_Oct_14_1109,100,1200,1920,49,2,2.5,False,,male,test,fr,379,361,0,1,0,3,0.0,--,--,--,--,--
Contrast Stuff,2022_Oct_14_1109,100,1200,1920,49,2,2.5,False,,male,test,fr,380,361,0,2,0,3,0.0,--,--,--,--,--
Contrast Stuff,2022_Oct_14_1109,100,1200,1920,49,2,2.5,False,,male,test,fr,381,361,0,2,1,3,0.0,--,--,--,--,--
Contrast Stuff,2022_Oct_14_1109,100,1200,1920,49,2,2.5,False,,male,test,fr,382,361,0,1,1,3,0.0,--,--,--,--,--
Contrast Stuff,2022_Oct_14_1109,100,1200,1920,49,2,2.5,False,,male,test,fr,383,361,0,2,1,3,0.0,--,--,--,--,--
Contrast Stuff,2022_Oct_14_1109,100,1200,1920,49,2,2.5,False,,male,test,fr,384,361,0,2,1,3,0.0,--,--,--,--,--
Contrast Stuff,2022_Oct_14_1109,100,1200,1920,49,2,2.5,False,,male,test,fr,385,361,0,1,1,3,0.0,--,--,--,--,--
Contrast Stuff,2022_Oct_14_1109,100,1200,1920,49,2,2.5,False,,male,test,fr,386,361,0,1,0,3,0.0,--,--,--,--,--
Contrast Stuff,2022_Oct_14_1109,100,1200,1920,49,2,2.5,False,,male,test,fr,387,361,0,2,1,3,0.0,--,--,--,--,--
Contrast Stuff,2022_Oct_14_1109,100,1200,1920,49,2,2.5,False,,male,test,fr,388,361,0,1,1,3,0.0,--,--,--,--,--
Contrast Stuff,2022_Oct_14_1109,100,1200,1920,49,2,2.5,False,,male,test,fr,389,361,0,1,0,3,0.0,--,--,--,--,--
Contrast Stuff,2022_Oct_14_1109,100,1200,1920,49,2,2.5,False,,male,test,fr,390,361,0,1,1,3,0.0,--,--,--,--,--
Contrast Stuff,2022_Oct_14_1109,100,1200,1920,49,2,2.5,False,,male,test,fr,391,361,0,1,0,3,0.0,--,--,--,--,--
Contrast Stuff,2022_Oct_14_1109,100,1200,1920,49,2,2.5,False,,male,test,fr,392,361,0,1,0,3,0.0,--,--,--,--,--
Contrast Stuff,2022_Oct_14_1109,100,1200,1920,49,2,2.5,False,,male,test,fr,393,361,0,1,0,3,0.0,--,--,--,--,--
Contrast Stuff,2022_Oct_14_1109,100,1200,1920,49,2,2.5,False,,male,test,fr,394,361,0,1,1,3,0.0,--,--,--,--,--
Contrast Stuff,2022_Oct_14_1109,100,1200,1920,49,2,2.5,False,,male,test,fr,395,361,0,2,0,3,0.0,--,--,--,--,--
Contrast Stuff,2022_Oct_14_1109,100,1200,1920,49,2,2.5,False,,male,test,fr,396,361,0,2,1,3,0.0,--,--,--,--,--
Contrast Stuff,2022_Oct_14_1109,100,1200,1920,49,2,2.5,False,,male,test,fr,397,361,0,1,0,3,0.0,--,--,--,--,--
Contrast Stuff,2022_Oct_14_1109,100,1200,1920,49,2,2.5,False,,male,test,fr,398,361,0,1,1,3,0.0,--,--,--,--,--
Contrast Stuff,2022_Oct_14_1109,100,1200,1920,49,2,2.5,False,,male,test,fr,399,361,0,1,1,3,0.0,--,--,--,--,--
Contrast Stuff,2022_Oct_14_1109,100,1200,1920,49,2,2.5,False,,male,test,fr,400,361,0,2,1,3,0.0,--,--,--,--,--
Contrast Stuff,2022_Oct_14_1109,100,1200,1920,49,2,2.5,False,,male,test,fr,401,0,0,2,1,2,0.0,--,--,--,--,--
Contrast Stuff,2022_Oct_14_1109,100,1200,1920,49,2,2.5,False,,male,test,fr,402,0,0,1,0,2,0.0,--,--,--,--,--
Contrast Stuff,2022_Oct_14_1109,100,1200,1920,49,2,2.5,False,,male,test,fr,403,0,0,1,1,2,0.0,--,--,--,--,--
Contrast Stuff,2022_Oct_14_1109,100,1200,1920,49,2,2.5,False,,male,test,fr,404,0,0,1,1,2,0.0,--,--,--,--,--
Contrast Stuff,2022_Oct_14_1109,100,1200,1920,49,2,2.5,False,,male,test,fr,405,0,0,1,0,2,0.0,--,--,--,--,--
Contrast Stuff,2022_Oct_14_1109,100,1200,1920,49,2,2.5,False,,male,test,fr,406,0,0,1,1,2,0.0,--,--,--,--,--
Contrast Stuff,2022_Oct_14_1109,100,1200,1920,49,2,2.5,False,,male,test,fr,407,0,0,1,1,2,0.0,--,--,--,--,--
Contrast Stuff,2022_Oct_14_1109,100,1200,1920,49,2,2.5,False,,male,test,fr,408,0,0,2,0,2,0.0,--,--,--,--,--
Contrast Stuff,2022_Oct_14_1109,100,1200,1920,49,2,2.5,False,,male,test,fr,409,0,0,2,0,2,0.0,--,--,--,--,--
Contrast Stuff,2022_Oct_14_1109,100,1200,1920,49,2,2.5,False,,male,test,fr,410,0,0,1,0,2,0.0,--,--,--,--,--
Contrast Stuff,2022_Oct_14_1109,100,1200,1920,49,2,2.5,False,,male,test,fr,411,0,0,2,1,2,0.0,--,--,--,--,--
Contrast Stuff,2022_Oct_14_1109,100,1200,1920,49,2,2.5,False,,male,test,fr,412,0,0,1,0,2,0.0,--,--,--,--,--
Contrast Stuff,2022_Oct_14_1109,100,1200,1920,49,2,2.5,False,,male,test,fr,413,0,0,1,0,2,0.0,--,--,--,--,--
Contrast Stuff,2022_Oct_14_1109,100,1200,1920,49,2,2.5,False,,male,test,fr,414,0,0,2,1,2,0.0,--,--,--,--,--
Contrast Stuff,2022_Oct_14_1109,100,1200,1920,49,2,2.5,False,,male,test,fr,415,0,0,1,1,2,0.0,--,--,--,--,--
Contrast Stuff,2022_Oct_14_1109,100,1200,1920,49,2,2.5,False,,male,test,fr,416,0,0,2,1,2,0.0,--,--,--,--,--
Contrast Stuff,2022_Oct_14_1109,100,1200,1920,49,2,2.5,False,,male,test,fr,417,0,0,2,1,2,0.0,--,--,--,--,--
Contrast Stuff,2022_Oct_14_1109,100,1200,1920,49,2,2.5,False,,male,test,fr,418,0,0,2,0,2,0.0,--,--,--,--,--
Contrast Stuff,2022_Oct_14_1109,100,1200,1920,49,2,2.5,False,,male,test,fr,419,0,0,2,0,2,0.0,--,--,--,--,--
Contrast Stuff,2022_Oct_14_1109,100,1200,1920,49,2,2.5,False,,male,test,fr,420,0,0,2,1,2,0.0,--,--,--,--,--
Contrast Stuff,2022_Oct_14_1109,100,1200,1920,49,2,2.5,False,,male,test,fr,421,0,0,2,0,2,0.0,--,--,--,--,--
Contrast Stuff,2022_Oct_14_1109,100,1200,1920,49,2,2.5,False,,male,test,fr,422,0,0,1,1,2,0.0,--,--,--,--,--
Contrast Stuff,2022_Oct_14_1109,100,1200,1920,49,2,2.5,False,,male,test,fr,423,0,0,2,0,2,0.0,--,--,--,--,--
Contrast Stuff,2022_Oct_14_1109,100,1200,1920,49,2,2.5,False,,male,test,fr,424,0,0,1,1,2,0.0,--,--,--,--,--
Contrast Stuff,2022_Oct_14_1109,100,1200,1920,49,2,2.5,False,,male,test,fr,425,0,0,1,1,2,0.0,--,--,--,--,--
Contrast Stuff,2022_Oct_14_1109,100,1200,1920,49,2,2.5,False,,male,test,fr,426,0,0,2,1,2,0.0,--,--,--,--,--
Contrast Stuff,2022_Oct_14_1109,100,1200,1920,49,2,2.5,False,,male,test,fr,427,0,0,1,1,2,0.0,--,--,--,--,--
Contrast Stuff,2022_Oct_14_1109,100,1200,1920,49,2,2.5,False,,male,test,fr,428,0,0,2,1,2,0.0,--,--,--,--,--
Contrast Stuff,2022_Oct_14_1109,100,1200,1920,49,2,2.5,False,,male,test,fr,429,0,0,1,1,2,0.0,--,--,--,--,--
Contrast Stuff,2022_Oct_14_1109,100,1200,1920,49,2,2.5,False,,male,test,fr,430,0,0,2,0,2,0.0,--,--,--,--,--
Contrast Stuff,2022_Oct_14_1109,100,1200,1920,49,2,2.5,False,,male,test,fr,431,0,0,1,0,2,0.0,--,--,--,--,--
Contrast Stuff,2022_Oct_14_1109,100,1200,1920,49,2,2.5,False,,male,test,fr,432,0,0,1,1,2,0.0,--,--,--,--,--
Contrast Stuff,2022_Oct_14_1109,100,1200,1920,49,2,2.5,False,,male,test,fr,433,0,0,2,0,2,0.0,--,--,--,--,--
Contrast Stuff,2022_Oct_14_1109,100,1200,1920,49,2,2.5,False,,male,test,fr,434,0,0,1,1,2,0.0,--,--,--,--,--
Contrast Stuff,2022_Oct_14_1109,100,1200,1920,49,2,2.5,False,,male,test,fr,435,0,0,2,0,2,0.0,--,--,--,--,--
Contrast Stuff,2022_Oct_14_1109,100,1200,1920,49,2,2.5,False,,male,test,fr,436,0,0,1,0,2,0.0,--,--,--,--,--
Contrast Stuff,2022_Oct_14_1109,100,1200,1920,49,2,2.5,False,,male,test,fr,437,0,0,2,0,2,0.0,--,--,--,--,--
Contrast Stuff,2022_Oct_14_1109,100,1200,1920,49,2,2.5,False,,male,test,fr,438,0,0,2,0,2,0.0,--,--,--,--,--
Contrast Stuff,2022_Oct_14_1109,100,1200,1920,49,2,2.5,False,,male,test,fr,439,0,0,2,1,2,0.0,--,--,--,--,--
Contrast Stuff,2022_Oct_14_1109,100,1200,1920,49,2,2.5,False,,male,test,fr,440,0,0,2,1,2,0.0,--,--,--,--,--
Contrast Stuff,2022_Oct_14_1109,100,1200,1920,49,2,2.5,False,,male,test,fr,441,0,0,2,1,2,0.0,--,--,--,--,--
Contrast Stuff,2022_Oct_14_1109,100,1200,1920,49,2,2.5,False,,male,test,fr,442,0,0,1,1,2,0.0,--,--,--,--,--
Contrast Stuff,2022_Oct_14_1109,100,1200,1920,49,2,2.5,False,,male,test,fr,443,0,0,2,1,2,0.0,--,--,--,--,--
Contrast Stuff,2022_Oct_14_1109,100,1200,1920,49,2,2.5,False,,male,test,fr,444,0,0,1,0,2,0.0,--,--,--,--,--
Contrast Stuff,2022_Oct_14_1109,100,1200,1920,49,2,2.5,False,,male,test,fr,445,0,0,1,1,2,0.0,--,--,--,--,--
Contrast Stuff,2022_Oct_14_1109,100,1200,1920,49,2,2.5,False,,male,test,fr,446,0,0,1,0,2,0.0,--,--,--,--,--
Contrast Stuff,2022_Oct_14_1109,100,1200,1920,49,2,2.5,False,,male,test,fr,447,0,0,2,0,2,0.0,--,--,--,--,--
Contrast Stuff,2022_Oct_14_1109,100,1200,1920,49,2,2.5,False,,male,test,fr,448,0,0,1,0,2,0.0,--,--,--,--,--
Contrast Stuff,2022_Oct_14_1109,100,1200,1920,49,2,2.5,False,,male,test,fr,449,0,0,1,0,2,0.0,--,--,--,--,--
Contrast Stuff,2022_Oct_14_1109,100,1200,1920,49,2,2.5,False,,male,test,fr,450,0,0,1,0,2,0.0,--,--,--,--,--
Contrast Stuff,2022_Oct_14_1109,100,1200,1920,49,2,2.5,False,,male,test,fr,451,0,0,1,1,2,0.0,--,--,--,--,--
Contrast Stuff,2022_Oct_14_1109,100,1200,1920,49,2,2.5,False,,male,test,fr,452,0,0,1,0,2,0.0,--,--,--,--,--
Contrast Stuff,2022_Oct_14_1109,100,1200,1920,49,2,2.5,False,,male,test,fr,453,0,0,2,1,2,0.0,--,--,--,--,--
Contrast Stuff,2022_Oct_14_1109,100,1200,1920,49,2,2.5,False,,male,test,fr,454,0,0,1,1,2,0.0,--,--,--,--,--
Contrast Stuff,2022_Oct_14_1109,100,1200,1920,49,2,2.5,False,,male,test,fr,455,0,0,2,1,2,0.0,--,--,--,--,--
Contrast Stuff,2022_Oct_14_1109,100,1200,1920,49,2,2.5,False,,male,test,fr,456,0,0,1,0,2,0.0,--,--,--,--,--
Contrast Stuff,2022_Oct_14_1109,100,1200,1920,49,2,2.5,False,,male,test,fr,457,0,0,1,0,2,0.0,--,--,--,--,--
Contrast Stuff,2022_Oct_14_1109,100,1200,1920,49,2,2.5,False,,male,test,fr,458,0,0,1,1,2,0.0,--,--,--,--,--
Contrast Stuff,2022_Oct_14_1109,100,1200,1920,49,2,2.5,False,,male,test,fr,459,0,0,1,1,2,0.0,--,--,--,--,--
Contrast Stuff,2022_Oct_14_1109,100,1200,1920,49,2,2.5,False,,male,test,fr,460,0,0,1,0,2,0.0,--,--,--,--,--
Contrast Stuff,2022_Oct_14_1109,100,1200,1920,49,2,2.5,False,,male,test,fr,461,0,0,2,1,2,0.0,--,--,--,--,--
Contrast Stuff,2022_Oct_14_1109,100,1200,1920,49,2,2.5,False,,male,test,fr,462,0,0,2,1,2,0.0,--,--,--,--,--
Contrast Stuff,2022_Oct_14_1109,100,1200,1920,49,2,2.5,False,,male,test,fr,463,0,0,2,0,2,0.0,--,--,--,--,--
Contrast Stuff,2022_Oct_14_1109,100,1200,1920,49,2,2.5,False,,male,test,fr,464,0,0,2,0,2,0.0,--,--,--,--,--
Contrast Stuff,2022_Oct_14_1109,100,1200,1920,49,2,2.5,False,,male,test,fr,465,0,0,2,0,2,0.0,--,--,--,--,--
Contrast Stuff,2022_Oct_14_1109,100,1200,1920,49,2,2.5,False,,male,test,fr,466,0,0,2,0,2,0.0,--,--,--,--,--
Contrast Stuff,2022_Oct_14_1109,100,1200,1920,49,2,2.5,False,,male,test,fr,467,0,0,2,0,2,0.0,--,--,--,--,--
Contrast Stuff,2022_Oct_14_1109,100,1200,1920,49,2,2.5,False,,male,test,fr,468,0,0,2,0,2,0.0,--,--,--,--,--
Contrast Stuff,2022_Oct_14_1109,100,1200,1920,49,2,2.5,False,,male,test,fr,469,0,0,1,0,2,0.0,--,--,--,--,--
Contrast Stuff,2022_Oct_14_1109,100,1200,1920,49,2,2.5,False,,male,test,fr,470,0,0,2,1,2,0.0,--,--,--,--,--
Contrast Stuff,2022_Oct_14_1109,100,1200,1920,49,2,2.5,False,,male,test,fr,471,0,0,1,0,2,0.0,--,--,--,--,--
Contrast Stuff,2022_Oct_14_1109,100,1200,1920,49,2,2.5,False,,male,test,fr,472,0,0,2,1,2,0.0,--,--,--,--,--
Contrast Stuff,2022_Oct_14_1109,100,1200,1920,49,2,2.5,False,,male,test,fr,473,0,0,1,1,2,0.0,--,--,--,--,--
Contrast Stuff,2022_Oct_14_1109,100,1200,1920,49,2,2.5,False,,male,test,fr,474,0,0,1,0,2,0.0,--,--,--,--,--
Contrast Stuff,2022_Oct_14_1109,100,1200,1920,49,2,2.5,False,,male,test,fr,475,0,0,1,1,2,0.0,--,--,--,--,--
Contrast Stuff,2022_Oct_14_1109,100,1200,1920,49,2,2.5,False,,male,test,fr,476,0,0,2,1,2,0.0,--,--,--,--,--
Contrast Stuff,2022_Oct_14_1109,100,1200,1920,49,2,2.5,False,,male,test,fr,477,0,0,2,0,2,0.0,--,--,--,--,--
Contrast Stuff,2022_Oct_14_1109,100,1200,1920,49,2,2.5,False,,male,test,fr,478,0,0,2,1,2,0.0,--,--,--,--,--
Contrast Stuff,2022_Oct_14_1109,100,1200,1920,49,2,2.5,False,,male,test,fr,479,0,0,2,0,2,0.0,--,--,--,--,--
Contrast Stuff,2022_Oct_14_1109,100,1200,1920,49,2,2.5,False,,male,test,fr,480,0,0,1,0,2,0.0,--,--,--,--,--
Contrast Stuff,2022_Oct_14_1109,100,1200,1920,49,2,2.5,False,,male,test,fr,481,361,0,1,0,3,0.0,--,--,--,--,--
Contrast Stuff,2022_Oct_14_1109,100,1200,1920,49,2,2.5,False,,male,test,fr,482,361,0,2,1,3,0.0,--,--,--,--,--
Contrast Stuff,2022_Oct_14_1109,100,1200,1920,49,2,2.5,False,,male,test,fr,483,361,0,1,1,3,0.0,--,--,--,--,--
Contrast Stuff,2022_Oct_14_1109,100,1200,1920,49,2,2.5,False,,male,test,fr,484,361,0,2,1,3,0.0,--,--,--,--,--
Contrast Stuff,2022_Oct_14_1109,100,1200,1920,49,2,2.5,False,,male,test,fr,485,361,0,1,1,3,0.0,--,--,--,--,--
Contrast Stuff,2022_Oct_14_1109,100,1200,1920,49,2,2.5,False,,male,test,fr,486,361,0,1,1,3,0.0,--,--,--,--,--
Contrast Stuff,2022_Oct_14_1109,100,1200,1920,49,2,2.5,False,,male,test,fr,487,361,0,2,0,3,0.0,--,--,--,--,--
Contrast Stuff,2022_Oct_14_1109,100,1200,1920,49,2,2.5,False,,male,test,fr,488,361,0,2,1,3,0.0,--,--,--,--,--
Contrast Stuff,2022_Oct_14_1109,100,1200,1920,49,2,2.5,False,,male,test,fr,489,361,0,1,0,3,0.0,--,--,--,--,--
Contrast Stuff,2022_Oct_14_1109,100,1200,1920,49,2,2.5,False,,male,test,fr,490,361,0,1,0,3,0.0,--,--,--,--,--
Contrast Stuff,2022_Oct_14_1109,100,1200,1920,49,2,2.5,False,,male,test,fr,491,361,0,2,1,3,0.0,--,--,--,--,--
Contrast Stuff,2022_Oct_14_1109,100,1200,1920,49,2,2.5,False,,male,test,fr,492,361,0,1,0,3,0.0,--,--,--,--,--
Contrast Stuff,2022_Oct_14_1109,100,1200,1920,49,2,2.5,False,,male,test,fr,493,361,0,2,1,3,0.0,--,--,--,--,--
Contrast Stuff,2022_Oct_14_1109,100,1200,1920,49,2,2.5,False,,male,test,fr,494,361,0,1,0,3,0.0,--,--,--,--,--
Contrast Stuff,2022_Oct_14_1109,100,1200,1920,49,2,2.5,False,,male,test,fr,495,361,0,2,1,3,0.0,--,--,--,--,--
Contrast Stuff,2022_Oct_14_1109,100,1200,1920,49,2,2.5,False,,male,test,fr,496,361,0,1,1,3,0.0,--,--,--,--,--
Contrast Stuff,2022_Oct_14_1109,100,1200,1920,49,2,2.5,False,,male,test,fr,497,361,0,1,0,3,0.0,--,--,--,--,--
Contrast Stuff,2022_Oct_14_1109,100,1200,1920,49,2,2.5,False,,male,test,fr,498,361,0,2,0,3,0.0,--,--,--,--,--
Contrast Stuff,2022_Oct_14_1109,100,1200,1920,49,2,2.5,False,,male,test,fr,499,361,0,2,1,3,0.0,--,--,--,--,--
Contrast Stuff,2022_Oct_14_1109,100,1200,1920,49,2,2.5,False,,male,test,fr,500,361,0,1,1,3,0.0,--,--,--,--,--
Contrast Stuff,2022_Oct_14_1109,100,1200,1920,49,2,2.5,False,,male,test,fr,501,361,0,1,1,3,0.0,--,--,--,--,--
Contrast Stuff,2022_Oct_14_1109,100,1200,1920,49,2,2.5,False,,male,test,fr,502,361,0,1,1,3,0.0,--,--,--,--,--
Contrast Stuff,2022_Oct_14_1109,100,1200,1920,49,2,2.5,False,,male,test,fr,503,361,0,2,0,3,0.0,--,--,--,--,--
Contrast Stuff,2022_Oct_14_1109,100,1200,1920,49,2,2.5,False,,male,test,fr,504,361,0,2,0,3,0.0,--,--,--,--,--
Contrast Stuff,2022_Oct_14_1109,100,1200,1920,49,2,2.5,False,,male,test,fr,505,361,0,1,0,3,0.0,--,--,--,--,--
Contrast Stuff,2022_Oct_14_1109,100,1200,1920,49,2,2.5,False,,male,test,fr,506,361,0,2,0,3,0.0,--,--,--,--,--
Contrast Stuff,2022_Oct_14_1109,100,1200,1920,49,2,2.5,False,,male,test,fr,507,361,0,2,0,3,0.0,--,--,--,--,--
Contrast Stuff,2022_Oct_14_1109,100,1200,1920,49,2,2.5,False,,male,test,fr,508,361,0,1,1,3,0.0,--,--,--,--,--
Contrast Stuff,2022_Oct_14_1109,100,1200,1920,49,2,2.5,False,,male,test,fr,509,361,0,2,0,3,0.0,--,--,--,--,--
Contrast Stuff,2022_Oct_14_1109,100,1200,1920,49,2,2.5,False,,male,test,fr,510,361,0,2,1,3,0.0,--,--,--,--,--
Contrast Stuff,2022_Oct_14_1109,100,1200,1920,49,2,2.5,False,,male,test,fr,511,361,0,1,1,3,0.0,--,--,--,--,--
Contrast Stuff,2022_Oct_14_1109,100,1200,1920,49,2,2.5,False,,male,test,fr,512,361,0,2,0,3,0.0,--,--,--,--,--
Contrast Stuff,2022_Oct_14_1109,100,1200,1920,49,2,2.5,False,,male,test,fr,513,361,0,2,1,3,0.0,--,--,--,--,--
Contrast Stuff,2022_Oct_14_1109,100,1200,1920,49,2,2.5,False,,male,test,fr,514,361,0,2,1,3,0.0,--,--,--,--,--
Contrast Stuff,2022_Oct_14_1109,100,1200,1920,49,2,2.5,False,,male,test,fr,515,361,0,1,1,3,0.0,--,--,--,--,--
Contrast Stuff,2022_Oct_14_1109,100,1200,1920,49,2,2.5,False,,male,test,fr,516,361,0,2,0,3,0.0,--,--,--,--,--
Contrast Stuff,2022_Oct_14_1109,100,1200,1920,49,2,2.5,False,,male,test,fr,517,361,0,2,1,3,0.0,--,--,--,--,--
Contrast Stuff,2022_Oct_14_1109,100,1200,1920,49,2,2.5,False,,male,test,fr,518,361,0,2,0,3,0.0,--,--,--,--,--
Contrast Stuff,2022_Oct_14_1109,100,1200,1920,49,2,2.5,False,,male,test,fr,519,361,0,2,0,3,0.0,--,--,--,--,--
Contrast Stuff,2022_Oct_14_1109,100,1200,1920,49,2,2.5,False,,male,test,fr,520,361,0,1,1,3,0.0,--,--,--,--,--
Contrast Stuff,2022_Oct_14_1109,100,1200,1920,49,2,2.5,False,,male,test,fr,521,361,0,2,1,3,0.0,--,--,--,--,--
Contrast Stuff,2022_Oct_14_1109,100,1200,1920,49,2,2.5,False,,male,test,fr,522,361,0,1,1,3,0.0,--,--,--,--,--
Contrast Stuff,2022_Oct_14_1109,100,1200,1920,49,2,2.5,False,,male,test,fr,523,361,0,2,1,3,0.0,--,--,--,--,--
Contrast Stuff,2022_Oct_14_1109,100,1200,1920,49,2,2.5,False,,male,test,fr,524,361,0,1,0,3,0.0,--,--,--,--,--
Contrast Stuff,2022_Oct_14_1109,100,1200,1920,49,2,2.5,False,,male,test,fr,525,361,0,1,1,3,0.0,--,--,--,--,--
Contrast Stuff,2022_Oct_14_1109,100,1200,1920,49,2,2.5,False,,male,test,fr,526,361,0,1,0,3,0.0,--,--,--,--,--
Contrast Stuff,2022_Oct_14_1109,100,1200,1920,49,2,2.5,False,,male,test,fr,527,361,0,2,0,3,0.0,--,--,--,--,--
Contrast Stuff,2022_Oct_14_1109,100,1200,1920,49,2,2.5,False,,male,test,fr,528,361,0,2,0,3,0.0,--,--,--,--,--
Contrast Stuff,2022_Oct_14_1109,100,1200,1920,49,2,2.5,False,,male,test,fr,529,361,0,1,0,3,0.0,--,--,--,--,--
Contrast Stuff,2022_Oct_14_1109,100,1200,1920,49,2,2.5,False,,male,test,fr,530,361,0,2,0,3,0.0,--,--,--,--,--
Contrast Stuff,2022_Oct_14_1109,100,1200,1920,49,2,2.5,False,,male,test,fr,531,361,0,1,0,3,0.0,--,--,--,--,--
Contrast Stuff,2022_Oct_14_1109,100,1200,1920,49,2,2.5,False,,male,test,fr,532,361,0,2,0,3,0.0,--,--,--,--,--
Contrast Stuff,2022_Oct_14_1109,100,1200,1920,49,2,2.5,False,,male,test,fr,533,361,0,2,0,3,0.0,--,--,--,--,--
Contrast Stuff,2022_Oct_14_1109,100,1200,1920,49,2,2.5,False,,male,test,fr,534,361,0,1,0,3,0.0,--,--,--,--,--
Contrast Stuff,2022_Oct_14_1109,100,1200,1920,49,2,2.5,False,,male,test,fr,535,361,0,2,0,3,0.0,--,--,--,--,--
Contrast Stuff,2022_Oct_14_1109,100,1200,1920,49,2,2.5,False,,male,test,fr,536,361,0,2,1,3,0.0,--,--,--,--,--
Contrast Stuff,2022_Oct_14_1109,100,1200,1920,49,2,2.5,False,,male,test,fr,537,361,0,2,0,3,0.0,--,--,--,--,--
Contrast Stuff,2022_Oct_14_1109,100,1200,1920,49,2,2.5,False,,male,test,fr,538,361,0,1,0,3,0.0,--,--,--,--,--
Contrast Stuff,2022_Oct_14_1109,100,1200,1920,49,2,2.5,False,,male,test,fr,539,361,0,1,0,3,0.0,--,--,--,--,--
Contrast Stuff,2022_Oct_14_1109,100,1200,1920,49,2,2.5,False,,male,test,fr,540,361,0,2,0,3,0.0,--,--,--,--,--
Contrast Stuff,2022_Oct_14_1109,100,1200,1920,49,2,2.5,False,,male,test,fr,541,361,0,2,1,3,0.0,--,--,--,--,--
Contrast Stuff,2022_Oct_14_1109,100,1200,1920,49,2,2.5,False,,male,test,fr,542,361,0,1,1,3,0.0,--,--,--,--,--
Contrast Stuff,2022_Oct_14_1109,100,1200,1920,49,2,2.5,False,,male,test,fr,543,361,0,2,1,3,0.0,--,--,--,--,--
Contrast Stuff,2022_Oct_14_1109,100,1200,1920,49,2,2.5,False,,male,test,fr,544,361,0,2,1,3,0.0,--,--,--,--,--
Contrast Stuff,2022_Oct_14_1109,100,1200,1920,49,2,2.5,False,,male,test,fr,545,361,0,1,1,3,0.0,--,--,--,--,--
Contrast Stuff,2022_Oct_14_1109,100,1200,1920,49,2,2.5,False,,male,test,fr,546,361,0,1,0,3,0.0,--,--,--,--,--
Contrast Stuff,2022_Oct_14_1109,100,1200,1920,49,2,2.5,False,,male,test,fr,547,361,0,2,1,3,0.0,--,--,--,--,--
Contrast Stuff,2022_Oct_14_1109,100,1200,1920,49,2,2.5,False,,male,test,fr,548,361,0,1,1,3,0.0,--,--,--,--,--
Contrast Stuff,2022_Oct_14_1109,100,1200,1920,49,2,2.5,False,,male,test,fr,549,361,0,1,0,3,0.0,--,--,--,--,--
Contrast Stuff,2022_Oct_14_1109,100,1200,1920,49,2,2.5,False,,male,test,fr,550,361,0,1,1,3,0.0,--,--,--,--,--
Contrast Stuff,2022_Oct_14_1109,100,1200,1920,49,2,2.5,False,,male,test,fr,551,361,0,1,0,3,0.0,--,--,--,--,--
Contrast Stuff,2022_Oct_14_1109,100,1200,1920,49,2,2.5,False,,male,test,fr,552,361,0,1,0,3,0.0,--,--,--,--,--
Contrast Stuff,2022_Oct_14_1109,100,1200,1920,49,2,2.5,False,,male,test,fr,553,361,0,1,0,3,0.0,--,--,--,--,--
Contrast Stuff,2022_Oct_14_1109,100,1200,1920,49,2,2.5,False,,male,test,fr,554,361,0,1,1,3,0.0,--,--,--,--,--
Contrast Stuff,2022_Oct_14_1109,100,1200,1920,49,2,2.5,False,,male,test,fr,555,361,0,2,0,3,0.0,--,--,--,--,--
Contrast Stuff,2022_Oct_14_1109,100,1200,1920,49,2,2.5,False,,male,test,fr,556,361,0,2,1,3,0.0,--,--,--,--,--
Contrast Stuff,2022_Oct_14_1109,100,1200,1920,49,2,2.5,False,,male,test,fr,557,361,0,1,0,3,0.0,--,--,--,--,--
Contrast Stuff,2022_Oct_14_1109,100,1200,1920,49,2,2.5,False,,male,test,fr,558,361,0,1,1,3,0.0,--,--,--,--,--
Contrast Stuff,2022_Oct_14_1109,100,1200,1920,49,2,2.5,False,,male,test,fr,559,361,0,1,1,3,0.0,--,--,--,--,--
Contrast Stuff,2022_Oct_14_1109,100,1200,1920,49,2,2.5,False,,male,test,fr,560,361,0,2,1,3,0.0,--,--,--,--,--
Contrast Stuff,2022_Oct_14_1109,100,1200,1920,49,2,2.5,False,,male,test,fr,561,90,0,1,0,1,0.0,--,--,--,--,--
Contrast Stuff,2022_Oct_14_1109,100,1200,1920,49,2,2.5,False,,male,test,fr,562,90,0,2,0,1,0.0,--,--,--,--,--
Contrast Stuff,2022_Oct_14_1109,100,1200,1920,49,2,2.5,False,,male,test,fr,563,90,0,1,0,1,0.0,--,--,--,--,--
Contrast Stuff,2022_Oct_14_1109,100,1200,1920,49,2,2.5,False,,male,test,fr,564,90,0,2,0,1,0.0,--,--,--,--,--
Contrast Stuff,2022_Oct_14_1109,100,1200,1920,49,2,2.5,False,,male,test,fr,565,90,0,2,1,1,0.0,--,--,--,--,--
Contrast Stuff,2022_Oct_14_1109,100,1200,1920,49,2,2.5,False,,male,test,fr,566,90,0,2,0,1,0.0,--,--,--,--,--
Contrast Stuff,2022_Oct_14_1109,100,1200,1920,49,2,2.5,False,,male,test,fr,567,90,0,2,1,1,0.0,--,--,--,--,--
Contrast Stuff,2022_Oct_14_1109,100,1200,1920,49,2,2.5,False,,male,test,fr,568,90,0,2,1,1,0.0,--,--,--,--,--
Contrast Stuff,2022_Oct_14_1109,100,1200,1920,49,2,2.5,False,,male,test,fr,569,90,0,2,1,1,0.0,--,--,--,--,--
Contrast Stuff,2022_Oct_14_1109,100,1200,1920,49,2,2.5,False,,male,test,fr,570,90,0,2,0,1,0.0,--,--,--,--,--
Contrast Stuff,2022_Oct_14_1109,100,1200,1920,49,2,2.5,False,,male,test,fr,571,90,0,1,1,1,0.0,--,--,--,--,--
Contrast Stuff,2022_Oct_14_1109,100,1200,1920,49,2,2.5,False,,male,test,fr,572,90,0,2,0,1,0.0,--,--,--,--,--
Contrast Stuff,2022_Oct_14_1109,100,1200,1920,49,2,2.5,False,,male,test,fr,573,90,0,1,1,1,0.0,--,--,--,--,--
Contrast Stuff,2022_Oct_14_1109,100,1200,1920,49,2,2.5,False,,male,test,fr,574,90,0,1,1,1,0.0,--,--,--,--,--
Contrast Stuff,2022_Oct_14_1109,100,1200,1920,49,2,2.5,False,,male,test,fr,575,90,0,1,0,1,0.0,--,--,--,--,--
Contrast Stuff,2022_Oct_14_1109,100,1200,1920,49,2,2.5,False,,male,test,fr,576,90,0,2,1,1,0.0,--,--,--,--,--
Contrast Stuff,2022_Oct_14_1109,100,1200,1920,49,2,2.5,False,,male,test,fr,577,90,0,2,0,1,0.0,--,--,--,--,--
Contrast Stuff,2022_Oct_14_1109,100,1200,1920,49,2,2.5,False,,male,test,fr,578,90,0,1,1,1,0.0,--,--,--,--,--
Contrast Stuff,2022_Oct_14_1109,100,1200,1920,49,2,2.5,False,,male,test,fr,579,90,0,2,1,1,0.0,--,--,--,--,--
Contrast Stuff,2022_Oct_14_1109,100,1200,1920,49,2,2.5,False,,male,test,fr,580,90,0,2,0,1,0.0,--,--,--,--,--
Contrast Stuff,2022_Oct_14_1109,100,1200,1920,49,2,2.5,False,,male,test,fr,581,90,0,1,1,1,0.0,--,--,--,--,--
Contrast Stuff,2022_Oct_14_1109,100,1200,1920,49,2,2.5,False,,male,test,fr,582,90,0,2,0,1,0.0,--,--,--,--,--
Contrast Stuff,2022_Oct_14_1109,100,1200,1920,49,2,2.5,False,,male,test,fr,583,90,0,1,0,1,0.0,--,--,--,--,--
Contrast Stuff,2022_Oct_14_1109,100,1200,1920,49,2,2.5,False,,male,test,fr,584,90,0,1,0,1,0.0,--,--,--,--,--
Contrast Stuff,2022_Oct_14_1109,100,1200,1920,49,2,2.5,False,,male,test,fr,585,90,0,2,0,1,0.0,--,--,--,--,--
Contrast Stuff,2022_Oct_14_1109,100,1200,1920,49,2,2.5,False,,male,test,fr,586,90,0,1,1,1,0.0,--,--,--,--,--
Contrast Stuff,2022_Oct_14_1109,100,1200,1920,49,2,2.5,False,,male,test,fr,587,90,0,2,0,1,0.0,--,--,--,--,--
Contrast Stuff,2022_Oct_14_1109,100,1200,1920,49,2,2.5,False,,male,test,fr,588,90,0,2,1,1,0.0,--,--,--,--,--
Contrast Stuff,2022_Oct_14_1109,100,1200,1920,49,2,2.5,False,,male,test,fr,589,90,0,1,1,1,0.0,--,--,--,--,--
Contrast Stuff,2022_Oct_14_1109,100,1200,1920,49,2,2.5,False,,male,test,fr,590,90,0,1,1,1,0.0,--,--,--,--,--
Contrast Stuff,2022_Oct_14_1109,100,1200,1920,49,2,2.5,False,,male,test,fr,591,90,0,2,1,1,0.0,--,--,--,--,--
Contrast Stuff,2022_Oct_14_1109,100,1200,1920,49,2,2.5,False,,male,test,fr,592,90,0,2,0,1,0.0,--,--,--,--,--
Contrast Stuff,2022_Oct_14_1109,100,1200,1920,49,2,2.5,False,,male,test,fr,593,90,0,2,1,1,0.0,--,--,--,--,--
Contrast Stuff,2022_Oct_14_1109,100,1200,1920,49,2,2.5,False,,male,test,fr,594,90,0,2,0,1,0.0,--,--,--,--,--
Contrast Stuff,2022_Oct_14_1109,100,1200,1920,49,2,2.5,False,,male,test,fr,595,90,0,2,1,1,0.0,--,--,--,--,--
Contrast Stuff,2022_Oct_14_1109,100,1200,1920,49,2,2.5,False,,male,test,fr,596,90,0,1,0,1,0.0,--,--,--,--,--
Contrast Stuff,2022_Oct_14_1109,100,1200,1920,49,2,2.5,False,,male,test,fr,597,90,0,1,1,1,0.0,--,--,--,--,--
Contrast Stuff,2022_Oct_14_1109,100,1200,1920,49,2,2.5,False,,male,test,fr,598,90,0,2,0,1,0.0,--,--,--,--,--
Contrast Stuff,2022_Oct_14_1109,100,1200,1920,49,2,2.5,False,,male,test,fr,599,90,0,1,0,1,0.0,--,--,--,--,--
Contrast Stuff,2022_Oct_14_1109,100,1200,1920,49,2,2.5,False,,male,test,fr,600,90,0,1,1,1,0.0,--,--,--,--,--
Contrast Stuff,2022_Oct_14_1109,100,1200,1920,49,2,2.5,False,,male,test,fr,601,90,0,2,1,1,0.0,--,--,--,--,--
Contrast Stuff,2022_Oct_14_1109,100,1200,1920,49,2,2.5,False,,male,test,fr,602,90,0,1,0,1,0.0,--,--,--,--,--
Contrast Stuff,2022_Oct_14_1109,100,1200,1920,49,2,2.5,False,,male,test,fr,603,90,0,2,0,1,0.0,--,--,--,--,--
Contrast Stuff,2022_Oct_14_1109,100,1200,1920,49,2,2.5,False,,male,test,fr,604,90,0,1,0,1,0.0,--,--,--,--,--
Contrast Stuff,2022_Oct_14_1109,100,1200,1920,49,2,2.5,False,,male,test,fr,605,90,0,2,1,1,0.0,--,--,--,--,--
Contrast Stuff,2022_Oct_14_1109,100,1200,1920,49,2,2.5,False,,male,test,fr,606,90,0,1,1,1,0.0,--,--,--,--,--
Contrast Stuff,2022_Oct_14_1109,100,1200,1920,49,2,2.5,False,,male,test,fr,607,90,0,2,0,1,0.0,--,--,--,--,--
Contrast Stuff,2022_Oct_14_1109,100,1200,1920,49,2,2.5,False,,male,test,fr,608,90,0,1,1,1,0.0,--,--,--,--,--
Contrast Stuff,2022_Oct_14_1109,100,1200,1920,49,2,2.5,False,,male,test,fr,609,90,0,2,1,1,0.0,--,--,--,--,--
Contrast Stuff,2022_Oct_14_1109,100,1200,1920,49,2,2.5,False,,male,test,fr,610,90,0,2,0,1,0.0,--,--,--,--,--
Contrast Stuff,2022_Oct_14_1109,100,1200,1920,49,2,2.5,False,,male,test,fr,611,90,0,2,0,1,0.0,--,--,--,--,--
Contrast Stuff,2022_Oct_14_1109,100,1200,1920,49,2,2.5,False,,male,test,fr,612,90,0,1,0,1,0.0,--,--,--,--,--
Contrast Stuff,2022_Oct_14_1109,100,1200,1920,49,2,2.5,False,,male,test,fr,613,90,0,2,1,1,0.0,--,--,--,--,--
Contrast Stuff,2022_Oct_14_1109,100,1200,1920,49,2,2.5,False,,male,test,fr,614,90,0,1,0,1,0.0,--,--,--,--,--
Contrast Stuff,2022_Oct_14_1109,100,1200,1920,49,2,2.5,False,,male,test,fr,615,90,0,1,0,1,0.0,--,--,--,--,--
Contrast Stuff,2022_Oct_14_1109,100,1200,1920,49,2,2.5,False,,male,test,fr,616,90,0,2,1,1,0.0,--,--,--,--,--
Contrast Stuff,2022_Oct_14_1109,100,1200,1920,49,2,2.5,False,,male,test,fr,617,90,0,1,0,1,0.0,--,--,--,--,--
Contrast Stuff,2022_Oct_14_1109,100,1200,1920,49,2,2.5,False,,male,test,fr,618,90,0,1,0,1,0.0,--,--,--,--,--
Contrast Stuff,2022_Oct_14_1109,100,1200,1920,49,2,2.5,False,,male,test,fr,619,90,0,1,0,1,0.0,--,--,--,--,--
Contrast Stuff,2022_Oct_14_1109,100,1200,1920,49,2,2.5,False,,male,test,fr,620,90,0,2,0,1,0.0,--,--,--,--,--
Contrast Stuff,2022_Oct_14_1109,100,1200,1920,49,2,2.5,False,,male,test,fr,621,90,0,1,1,1,0.0,--,--,--,--,--
Contrast Stuff,2022_Oct_14_1109,100,1200,1920,49,2,2.5,False,,male,test,fr,622,90,0,1,1,1,0.0,--,--,--,--,--
Contrast Stuff,2022_Oct_14_1109,100,1200,1920,49,2,2.5,False,,male,test,fr,623,90,0,1,1,1,0.0,--,--,--,--,--
Contrast Stuff,2022_Oct_14_1109,100,1200,1920,49,2,2.5,False,,male,test,fr,624,90,0,2,0,1,0.0,--,--,--,--,--
Contrast Stuff,2022_Oct_14_1109,100,1200,1920,49,2,2.5,False,,male,test,fr,625,90,0,1,0,1,0.0,--,--,--,--,--
Contrast Stuff,2022_Oct_14_1109,100,1200,1920,49,2,2.5,False,,male,test,fr,626,90,0,1,1,1,0.0,--,--,--,--,--
Contrast Stuff,2022_Oct_14_1109,100,1200,1920,49,2,2.5,False,,male,test,fr,627,90,0,2,1,1,0.0,--,--,--,--,--
Contrast Stuff,2022_Oct_14_1109,100,1200,1920,49,2,2.5,False,,male,test,fr,628,90,0,1,1,1,0.0,--,--,--,--,--
Contrast Stuff,2022_Oct_14_1109,100,1200,1920,49,2,2.5,False,,male,test,fr,629,90,0,1,0,1,0.0,--,--,--,--,--
Contrast Stuff,2022_Oct_14_1109,100,1200,1920,49,2,2.5,False,,male,test,fr,630,90,0,1,1,1,0.0,--,--,--,--,--
Contrast Stuff,2022_Oct_14_1109,100,1200,1920,49,2,2.5,False,,male,test,fr,631,90,0,1,1,1,0.0,--,--,--,--,--
Contrast Stuff,2022_Oct_14_1109,100,1200,1920,49,2,2.5,False,,male,test,fr,632,90,0,2,1,1,0.0,--,--,--,--,--
Contrast Stuff,2022_Oct_14_1109,100,1200,1920,49,2,2.5,False,,male,test,fr,633,90,0,2,1,1,0.0,--,--,--,--,--
Contrast Stuff,2022_Oct_14_1109,100,1200,1920,49,2,2.5,False,,male,test,fr,634,90,0,1,0,1,0.0,--,--,--,--,--
Contrast Stuff,2022_Oct_14_1109,100,1200,1920,49,2,2.5,False,,male,test,fr,635,90,0,1,0,1,0.0,--,--,--,--,--
Contrast Stuff,2022_Oct_14_1109,100,1200,1920,49,2,2.5,False,,male,test,fr,636,90,0,2,0,1,0.0,--,--,--,--,--
Contrast Stuff,2022_Oct_14_1109,100,1200,1920,49,2,2.5,False,,male,test,fr,637,90,0,1,1,1,0.0,--,--,--,--,--
Contrast Stuff,2022_Oct_14_1109,100,1200,1920,49,2,2.5,False,,male,test,fr,638,90,0,2,1,1,0.0,--,--,--,--,--
Contrast Stuff,2022_Oct_14_1109,100,1200,1920,49,2,2.5,False,,male,test,fr,639,90,0,1,0,1,0.0,--,--,--,--,--
Contrast Stuff,2022_Oct_14_1109,100,1200,1920,49,2,2.5,False,,male,test,fr,640,90,0,2,1,1,0.0,--,--,--,--,--
Contrast Stuff,2022_Oct_14_1109,100,1200,1920,49,2,2.5,False,,male,test,fr,641,0,0,2,1,2,0.0,--,--,--,--,--
Contrast Stuff,2022_Oct_14_1109,100,1200,1920,49,2,2.5,False,,male,test,fr,642,0,0,1,0,2,0.0,--,--,--,--,--
Contrast Stuff,2022_Oct_14_1109,100,1200,1920,49,2,2.5,False,,male,test,fr,643,0,0,1,1,2,0.0,--,--,--,--,--
Contrast Stuff,2022_Oct_14_1109,100,1200,1920,49,2,2.5,False,,male,test,fr,644,0,0,1,1,2,0.0,--,--,--,--,--
Contrast Stuff,2022_Oct_14_1109,100,1200,1920,49,2,2.5,False,,male,test,fr,645,0,0,1,0,2,0.0,--,--,--,--,--
Contrast Stuff,2022_Oct_14_1109,100,1200,1920,49,2,2.5,False,,male,test,fr,646,0,0,1,1,2,0.0,--,--,--,--,--
Contrast Stuff,2022_Oct_14_1109,100,1200,1920,49,2,2.5,False,,male,test,fr,647,0,0,1,1,2,0.0,--,--,--,--,--
Contrast Stuff,2022_Oct_14_1109,100,1200,1920,49,2,2.5,False,,male,test,fr,648,0,0,2,0,2,0.0,--,--,--,--,--
Contrast Stuff,2022_Oct_14_1109,100,1200,1920,49,2,2.5,False,,male,test,fr,649,0,0,2,0,2,0.0,--,--,--,--,--
Contrast Stuff,2022_Oct_14_1109,100,1200,1920,49,2,2.5,False,,male,test,fr,650,0,0,1,0,2,0.0,--,--,--,--,--
Contrast Stuff,2022_Oct_14_1109,100,1200,1920,49,2,2.5,False,,male,test,fr,651,0,0,2,1,2,0.0,--,--,--,--,--
Contrast Stuff,2022_Oct_14_1109,100,1200,1920,49,2,2.5,False,,male,test,fr,652,0,0,1,0,2,0.0,--,--,--,--,--
Contrast Stuff,2022_Oct_14_1109,100,1200,1920,49,2,2.5,False,,male,test,fr,653,0,0,1,0,2,0.0,--,--,--,--,--
Contrast Stuff,2022_Oct_14_1109,100,1200,1920,49,2,2.5,False,,male,test,fr,654,0,0,2,1,2,0.0,--,--,--,--,--
Contrast Stuff,2022_Oct_14_1109,100,1200,1920,49,2,2.5,False,,male,test,fr,655,0,0,1,1,2,0.0,--,--,--,--,--
Contrast Stuff,2022_Oct_14_1109,100,1200,1920,49,2,2.5,False,,male,test,fr,656,0,0,2,1,2,0.0,--,--,--,--,--
Contrast Stuff,2022_Oct_14_1109,100,1200,1920,49,2,2.5,False,,male,test,fr,657,0,0,2,1,2,0.0,--,--,--,--,--
Contrast Stuff,2022_Oct_14_1109,100,1200,1920,49,2,2.5,False,,male,test,fr,658,0,0,2,0,2,0.0,--,--,--,--,--
Contrast Stuff,2022_Oct_14_1109,100,1200,1920,49,2,2.5,False,,male,test,fr,659,0,0,2,0,2,0.0,--,--,--,--,--
Contrast Stuff,2022_Oct_14_1109,100,1200,1920,49,2,2.5,False,,male,test,fr,660,0,0,2,1,2,0.0,--,--,--,--,--
Contrast Stuff,2022_Oct_14_1109,100,1200,1920,49,2,2.5,False,,male,test,fr,661,0,0,2,0,2,0.0,--,--,--,--,--
Contrast Stuff,2022_Oct_14_1109,100,1200,1920,49,2,2.5,False,,male,test,fr,662,0,0,1,1,2,0.0,--,--,--,--,--
Contrast Stuff,2022_Oct_14_1109,100,1200,1920,49,2,2.5,False,,male,test,fr,663,0,0,2,0,2,0.0,--,--,--,--,--
Contrast Stuff,2022_Oct_14_1109,100,1200,1920,49,2,2.5,False,,male,test,fr,664,0,0,1,1,2,0.0,--,--,--,--,--
Contrast Stuff,2022_Oct_14_1109,100,1200,1920,49,2,2.5,False,,male,test,fr,665,0,0,1,1,2,0.0,--,--,--,--,--
Contrast Stuff,2022_Oct_14_1109,100,1200,1920,49,2,2.5,False,,male,test,fr,666,0,0,2,1,2,0.0,--,--,--,--,--
Contrast Stuff,2022_Oct_14_1109,100,1200,1920,49,2,2.5,False,,male,test,fr,667,0,0,1,1,2,0.0,--,--,--,--,--
Contrast Stuff,2022_Oct_14_1109,100,1200,1920,49,2,2.5,False,,male,test,fr,668,0,0,2,1,2,0.0,--,--,--,--,--
Contrast Stuff,2022_Oct_14_1109,100,1200,1920,49,2,2.5,False,,male,test,fr,669,0,0,1,1,2,0.0,--,--,--,--,--
Contrast Stuff,2022_Oct_14_1109,100,1200,1920,49,2,2.5,False,,male,test,fr,670,0,0,2,0,2,0.0,--,--,--,--,--
Contrast Stuff,2022_Oct_14_1109,100,1200,1920,49,2,2.5,False,,male,test,fr,671,0,0,1,0,2,0.0,--,--,--,--,--
Contrast Stuff,2022_Oct_14_1109,100,1200,1920,49,2,2.5,False,,male,test,fr,672,0,0,1,1,2,0.0,--,--,--,--,--
Contrast Stuff,2022_Oct_14_1109,100,1200,1920,49,2,2.5,False,,male,test,fr,673,0,0,2,0,2,0.0,--,--,--,--,--
Contrast Stuff,2022_Oct_14_1109,100,1200,1920,49,2,2.5,False,,male,test,fr,674,0,0,1,1,2,0.0,--,--,--,--,--
Contrast Stuff,2022_Oct_14_1109,100,1200,1920,49,2,2.5,False,,male,test,fr,675,0,0,2,0,2,0.0,--,--,--,--,--
Contrast Stuff,2022_Oct_14_1109,100,1200,1920,49,2,2.5,False,,male,test,fr,676,0,0,1,0,2,0.0,--,--,--,--,--
Contrast Stuff,2022_Oct_14_1109,100,1200,1920,49,2,2.5,False,,male,test,fr,677,0,0,2,0,2,0.0,--,--,--,--,--
Contrast Stuff,2022_Oct_14_1109,100,1200,1920,49,2,2.5,False,,male,test,fr,678,0,0,2,0,2,0.0,--,--,--,--,--
Contrast Stuff,2022_Oct_14_1109,100,1200,1920,49,2,2.5,False,,male,test,fr,679,0,0,2,1,2,0.0,--,--,--,--,--
Contrast Stuff,2022_Oct_14_1109,100,1200,1920,49,2,2.5,False,,male,test,fr,680,0,0,2,1,2,0.0,--,--,--,--,--
Contrast Stuff,2022_Oct_14_1109,100,1200,1920,49,2,2.5,False,,male,test,fr,681,0,0,2,1,2,0.0,--,--,--,--,--
Contrast Stuff,2022_Oct_14_1109,100,1200,1920,49,2,2.5,False,,male,test,fr,682,0,0,1,1,2,0.0,--,--,--,--,--
Contrast Stuff,2022_Oct_14_1109,100,1200,1920,49,2,2.5,False,,male,test,fr,683,0,0,2,1,2,0.0,--,--,--,--,--
Contrast Stuff,2022_Oct_14_1109,100,1200,1920,49,2,2.5,False,,male,test,fr,684,0,0,1,0,2,0.0,--,--,--,--,--
Contrast Stuff,2022_Oct_14_1109,100,1200,1920,49,2,2.5,False,,male,test,fr,685,0,0,1,1,2,0.0,--,--,--,--,--
Contrast Stuff,2022_Oct_14_1109,100,1200,1920,49,2,2.5,False,,male,test,fr,686,0,0,1,0,2,0.0,--,--,--,--,--
Contrast Stuff,2022_Oct_14_1109,100,1200,1920,49,2,2.5,False,,male,test,fr,687,0,0,2,0,2,0.0,--,--,--,--,--
Contrast Stuff,2022_Oct_14_1109,100,1200,1920,49,2,2.5,False,,male,test,fr,688,0,0,1,0,2,0.0,--,--,--,--,--
Contrast Stuff,2022_Oct_14_1109,100,1200,1920,49,2,2.5,False,,male,test,fr,689,0,0,1,0,2,0.0,--,--,--,--,--
Contrast Stuff,2022_Oct_14_1109,100,1200,1920,49,2,2.5,False,,male,test,fr,690,0,0,1,0,2,0.0,--,--,--,--,--
Contrast Stuff,2022_Oct_14_1109,100,1200,1920,49,2,2.5,False,,male,test,fr,691,0,0,1,1,2,0.0,--,--,--,--,--
Contrast Stuff,2022_Oct_14_1109,100,1200,1920,49,2,2.5,False,,male,test,fr,692,0,0,1,0,2,0.0,--,--,--,--,--
Contrast Stuff,2022_Oct_14_1109,100,1200,1920,49,2,2.5,False,,male,test,fr,693,0,0,2,1,2,0.0,--,--,--,--,--
Contrast Stuff,2022_Oct_14_1109,100,1200,1920,49,2,2.5,False,,male,test,fr,694,0,0,1,1,2,0.0,--,--,--,--,--
Contrast Stuff,2022_Oct_14_1109,100,1200,1920,49,2,2.5,False,,male,test,fr,695,0,0,2,1,2,0.0,--,--,--,--,--
Contrast Stuff,2022_Oct_14_1109,100,1200,1920,49,2,2.5,False,,male,test,fr,696,0,0,1,0,2,0.0,--,--,--,--,--
Contrast Stuff,2022_Oct_14_1109,100,1200,1920,49,2,2.5,False,,male,test,fr,697,0,0,1,0,2,0.0,--,--,--,--,--
Contrast Stuff,2022_Oct_14_1109,100,1200,1920,49,2,2.5,False,,male,test,fr,698,0,0,1,1,2,0.0,--,--,--,--,--
Contrast Stuff,2022_Oct_14_1109,100,1200,1920,49,2,2.5,False,,male,test,fr,699,0,0,1,1,2,0.0,--,--,--,--,--
Contrast Stuff,2022_Oct_14_1109,100,1200,1920,49,2,2.5,False,,male,test,fr,700,0,0,1,0,2,0.0,--,--,--,--,--
Contrast Stuff,2022_Oct_14_1109,100,1200,1920,49,2,2.5,False,,male,test,fr,701,0,0,2,1,2,0.0,--,--,--,--,--
Contrast Stuff,2022_Oct_14_1109,100,1200,1920,49,2,2.5,False,,male,test,fr,702,0,0,2,1,2,0.0,--,--,--,--,--
Contrast Stuff,2022_Oct_14_1109,100,1200,1920,49,2,2.5,False,,male,test,fr,703,0,0,2,0,2,0.0,--,--,--,--,--
Contrast Stuff,2022_Oct_14_1109,100,1200,1920,49,2,2.5,False,,male,test,fr,704,0,0,2,0,2,0.0,--,--,--,--,--
Contrast Stuff,2022_Oct_14_1109,100,1200,1920,49,2,2.5,False,,male,test,fr,705,0,0,2,0,2,0.0,--,--,--,--,--
Contrast Stuff,2022_Oct_14_1109,100,1200,1920,49,2,2.5,False,,male,test,fr,706,0,0,2,0,2,0.0,--,--,--,--,--
Contrast Stuff,2022_Oct_14_1109,100,1200,1920,49,2,2.5,False,,male,test,fr,707,0,0,2,0,2,0.0,--,--,--,--,--
Contrast Stuff,2022_Oct_14_1109,100,1200,1920,49,2,2.5,False,,male,test,fr,708,0,0,2,0,2,0.0,--,--,--,--,--
Contrast Stuff,2022_Oct_14_1109,100,1200,1920,49,2,2.5,False,,male,test,fr,709,0,0,1,0,2,0.0,--,--,--,--,--
Contrast Stuff,2022_Oct_14_1109,100,1200,1920,49,2,2.5,False,,male,test,fr,710,0,0,2,1,2,0.0,--,--,--,--,--
Contrast Stuff,2022_Oct_14_1109,100,1200,1920,49,2,2.5,False,,male,test,fr,711,0,0,1,0,2,0.0,--,--,--,--,--
Contrast Stuff,2022_Oct_14_1109,100,1200,1920,49,2,2.5,False,,male,test,fr,712,0,0,2,1,2,0.0,--,--,--,--,--
Contrast Stuff,2022_Oct_14_1109,100,1200,1920,49,2,2.5,False,,male,test,fr,713,0,0,1,1,2,0.0,--,--,--,--,--
Contrast Stuff,2022_Oct_14_1109,100,1200,1920,49,2,2.5,False,,male,test,fr,714,0,0,1,0,2,0.0,--,--,--,--,--
Contrast Stuff,2022_Oct_14_1109,100,1200,1920,49,2,2.5,False,,male,test,fr,715,0,0,1,1,2,0.0,--,--,--,--,--
Contrast Stuff,2022_Oct_14_1109,100,1200,1920,49,2,2.5,False,,male,test,fr,716,0,0,2,1,2,0.0,--,--,--,--,--
Contrast Stuff,2022_Oct_14_1109,100,1200,1920,49,2,2.5,False,,male,test,fr,717,0,0,2,0,2,0.0,--,--,--,--,--
Contrast Stuff,2022_Oct_14_1109,100,1200,1920,49,2,2.5,False,,male,test,fr,718,0,0,2,1,2,0.0,--,--,--,--,--
Contrast Stuff,2022_Oct_14_1109,100,1200,1920,49,2,2.5,False,,male,test,fr,719,0,0,2,0,2,0.0,--,--,--,--,--
Contrast Stuff,2022_Oct_14_1109,100,1200,1920,49,2,2.5,False,,male,test,fr,720,0,0,1,0,2,0.0,--,--,--,--,--
